micros,aX,aY,aZ,gX,gY,gZ,mX,mY,mZ,
1216754,21.48,998.54,63.48,7.56,-0.31,2.63,-12.15,15.90,101.70,
1236758,39.06,1002.93,-6.35,1.74,-13.04,-1.63,-13.05,16.35,100.80,
1256766,25.39,983.40,43.46,2.85,2.44,1.13,-12.45,16.95,101.40,
1276773,36.13,983.40,-3.91,-4.02,-0.96,-2.76,-13.35,15.60,101.25,
1296782,26.37,993.65,23.44,-3.60,4.90,-1.25,-12.15,16.50,101.10,
1316787,17.58,990.72,45.90,-2.00,1.44,0.12,-12.30,17.10,102.30,
1336791,27.34,984.86,26.37,-0.02,4.46,-7.04,-12.30,15.60,101.25,
1356798,38.09,992.68,28.81,0.12,1.77,-4.40,-13.05,15.60,101.85,
1376805,14.16,991.21,43.95,1.97,3.37,-2.32,-13.80,15.60,100.80,
1396810,31.74,993.16,2.44,-2.26,-3.39,-3.62,-11.55,17.10,101.85,
1416816,22.46,982.91,26.86,-0.47,11.34,-2.35,-12.00,15.30,100.50,
1436821,14.65,993.16,34.67,-0.72,10.67,0.34,-13.05,15.60,101.55,
1456832,15.14,993.16,40.53,0.66,-4.14,2.09,-11.25,15.60,101.85,
1476841,29.30,982.91,0.98,-3.57,7.25,0.15,-13.05,14.55,100.80,
1496850,20.02,983.40,43.95,-4.47,-2.41,2.18,-14.10,15.30,101.25,
1516857,30.27,1000.00,20.51,-4.03,7.44,1.69,-12.45,15.45,100.65,
1536868,21.48,978.03,43.95,-1.02,5.45,-0.50,-12.30,16.80,101.25,
1556877,28.32,988.28,34.18,-0.50,-0.12,-2.56,-13.20,15.45,102.75,
1576887,37.11,1005.86,36.62,0.43,-2.21,-1.56,-11.85,14.70,100.65,
1596898,27.34,1002.93,24.41,1.76,2.76,-4.24,-13.35,15.60,101.55,
1616906,29.30,1013.67,35.16,-3.16,2.03,-2.95,-11.55,16.80,102.30,
1636910,20.51,987.79,23.93,-1.19,5.07,-1.47,-12.00,14.25,101.55,
1656920,31.74,1013.18,22.95,-0.52,-3.77,0.26,-12.15,15.90,101.10,
1676929,32.23,993.16,19.53,-2.44,9.85,-5.13,-13.95,16.20,100.35,
1696940,18.55,994.14,45.90,3.24,-7.01,-2.60,-12.45,14.70,101.70,
1716945,28.32,991.21,48.34,3.25,-11.97,-5.57,-12.45,15.15,102.15,
1736956,34.18,985.35,-0.49,2.70,-9.24,-6.84,-12.90,16.20,101.10,
1756961,34.18,984.38,-1.46,0.20,14.40,-4.79,-11.25,15.30,101.25,
1776968,11.72,997.07,46.39,-1.48,17.11,0.17,-11.10,15.90,101.70,
1796972,15.14,991.70,38.57,-2.89,-0.93,2.12,-12.90,15.15,101.10,
1816978,22.95,984.38,22.95,-0.49,-0.90,-2.43,-12.15,15.90,101.40,
1836986,47.85,973.14,10.74,-2.00,1.63,-3.07,-12.00,16.05,101.85,
1856994,25.39,1001.46,14.65,-3.86,11.33,0.92,-13.20,15.15,102.15,
1877004,20.51,991.21,35.64,-4.87,24.67,0.29,-12.15,15.90,102.75,
1897008,7.81,989.26,65.43,-2.93,-6.44,-6.53,-11.25,16.35,101.25,
1917017,26.37,992.68,49.80,2.43,-1.18,-5.91,-13.05,16.05,101.85,
1937022,27.34,985.84,24.90,-0.70,-16.15,-2.84,-12.30,17.10,101.25,
1957029,22.46,1002.93,-8.30,0.89,6.50,-5.24,-11.85,16.95,101.10,
1977034,16.60,987.79,41.02,-0.35,-2.69,0.34,-11.10,16.20,102.75,
1997046,14.16,985.84,15.62,1.13,-2.85,0.44,-11.85,16.20,102.45,
2017054,25.88,1002.44,6.84,-0.72,6.61,0.17,-13.35,16.35,100.50,
2037060,16.60,1005.86,50.29,-5.97,0.08,0.20,-12.00,15.60,101.25,
2057068,20.51,982.42,8.30,-3.69,0.99,1.39,-12.30,16.35,101.85,
2077077,18.55,1001.46,65.43,-1.71,6.56,-0.27,-13.20,15.90,101.10,
2097087,35.16,974.12,27.83,-2.93,-0.18,-3.97,-12.60,15.60,101.25,
2117096,30.27,993.16,15.62,-0.90,-5.51,-2.50,-12.30,15.30,101.25,
2137102,26.86,985.84,6.84,0.95,-7.57,-7.73,-11.85,15.90,102.15,
2157108,10.25,996.58,76.17,3.08,-11.21,-3.13,-11.10,16.50,101.70,
2177116,25.88,982.42,-37.11,-1.47,-3.69,-0.56,-13.20,15.90,102.15,
2197125,18.07,982.91,42.97,0.52,18.21,-0.31,-12.45,16.50,102.15,
2217136,20.02,1000.00,28.81,-4.43,-3.59,1.69,-10.95,16.35,101.55,
2237146,10.74,990.23,56.64,-1.16,6.52,1.21,-11.85,15.15,101.70,
2257154,10.25,981.93,33.69,-2.24,-7.76,3.04,-11.85,15.90,102.45,
2277163,20.51,979.98,46.39,0.69,-1.86,0.23,-11.25,16.80,100.50,
2297174,28.81,997.07,-1.46,-1.65,-4.02,1.27,-12.15,17.25,100.65,
2317180,23.44,994.63,18.07,-2.09,15.51,-1.36,-12.15,16.95,101.10,
2337189,19.04,997.07,34.67,-4.38,1.44,3.59,-13.05,16.05,100.80,
2357198,32.23,989.26,30.27,0.63,9.08,1.76,-12.30,14.85,101.85,
2377204,43.95,988.28,24.90,-0.50,3.51,0.84,-12.90,15.15,101.10,
2397212,25.88,989.75,27.34,1.31,4.43,1.31,-12.90,18.00,102.45,
2417218,28.81,997.07,15.62,-2.78,2.03,-0.40,-13.35,16.05,102.30,
2437224,35.16,983.89,51.27,-1.94,2.58,-2.98,-13.50,15.90,101.10,
2457234,34.67,986.82,30.76,-1.79,1.39,1.85,-13.05,15.60,103.95,
2477239,30.76,1004.39,33.69,0.11,-0.84,-4.93,-13.05,15.60,101.55,
2497243,33.20,1006.84,29.79,-1.83,2.82,-3.02,-13.80,13.80,101.85,
2517250,31.25,994.63,41.99,-0.44,-0.02,-2.66,-12.60,15.60,102.90,
2537255,33.20,995.12,16.60,-0.53,0.56,-1.79,-12.00,16.05,101.25,
2557263,28.81,981.45,13.67,-2.63,-0.17,-0.56,-12.00,14.85,101.55,
2577272,41.99,982.91,86.91,-1.21,-2.23,6.61,-14.10,15.30,101.85,
2597278,35.16,990.23,65.92,-4.41,0.87,4.35,-13.50,15.45,101.40,
2617282,29.79,982.42,35.16,1.77,-1.53,6.52,-13.05,15.60,100.80,
2637290,29.79,995.12,36.62,3.71,0.31,5.21,-12.45,14.40,102.15,
2657300,39.06,984.86,31.25,1.22,-2.76,5.11,-14.25,15.15,101.70,
2677308,37.11,995.61,6.84,3.69,-2.43,0.52,-12.60,16.80,102.60,
2697319,26.37,973.14,40.04,-2.89,1.98,-0.81,-13.35,16.35,101.55,
2717326,29.79,990.23,37.60,1.77,0.99,-0.29,-13.20,14.40,100.35,
2737336,42.48,998.54,41.02,-1.91,3.97,-3.33,-13.20,15.45,101.40,
2757340,33.69,1002.44,35.16,1.31,-1.28,-3.44,-12.15,15.90,102.45,
2777351,40.53,982.42,24.90,6.41,-7.24,-3.60,-13.20,16.50,103.05,
2797359,36.13,998.05,16.60,2.46,-1.98,2.85,-13.50,16.95,102.45,
2817365,38.09,993.65,18.07,-2.99,-2.43,-2.11,-13.50,15.45,100.65,
2837370,39.06,990.23,33.20,-0.52,-0.75,1.44,-12.45,15.15,101.10,
2857379,41.99,991.70,24.41,0.87,-0.43,-0.61,-13.50,15.15,100.65,
2877383,35.64,999.51,46.88,1.48,0.15,2.66,-12.15,15.90,101.40,
2897388,26.86,996.58,27.83,3.94,-0.55,-0.11,-12.45,15.90,102.15,
2917393,30.76,985.84,11.23,0.52,-0.46,4.53,-13.20,15.45,101.40,
2937403,34.18,999.02,20.51,-2.35,0.95,4.72,-11.25,14.85,101.85,
2957412,33.20,997.56,30.27,-0.38,-0.90,3.21,-13.05,17.10,100.20,
2977423,40.53,996.09,34.18,2.81,-4.64,2.17,-13.05,16.35,101.85,
2997434,46.39,996.58,20.02,2.35,0.99,0.96,-11.25,15.60,100.80,
3017439,38.57,983.40,29.79,0.24,3.33,-1.28,-14.40,15.60,101.55,
3037446,25.88,982.42,51.27,1.51,-2.61,0.70,-14.10,16.05,101.55,
3057451,52.25,982.42,44.92,2.20,-2.43,1.30,-14.10,14.85,101.55,
3077460,34.67,987.30,30.76,4.52,-3.88,1.24,-12.45,14.70,103.50,
3097465,50.78,985.84,17.58,4.03,-2.15,2.26,-12.00,15.30,101.25,
3117471,40.53,990.72,25.88,-1.77,-0.14,-0.84,-13.05,15.30,103.35,
3137481,49.32,1000.00,32.23,-1.13,-0.26,1.27,-12.60,14.55,100.50,
3157490,43.46,987.30,14.65,-2.41,3.56,3.28,-13.50,16.20,100.35,
3177500,33.69,982.91,36.62,-3.30,-0.69,2.15,-13.05,16.35,100.80,
3197510,38.09,981.93,38.09,0.34,-0.06,-1.30,-13.50,15.45,102.45,
3217517,45.41,978.03,11.23,2.24,2.58,1.98,-13.20,15.15,100.65,
3237528,39.06,997.07,21.97,0.18,19.77,0.24,-12.90,15.15,101.10,
3257533,21.00,999.02,74.22,-0.75,-6.79,-1.82,-13.50,13.95,100.65,
3277544,43.95,996.58,16.60,2.37,0.32,-8.50,-12.60,15.60,100.80,
3297554,24.90,1000.98,64.45,11.62,-10.55,-0.05,-12.30,16.05,102.30,
3317562,23.44,1001.46,88.87,18.40,-28.93,8.11,-12.60,15.30,100.50,
3337570,52.25,995.61,-54.69,8.95,-37.44,13.97,-12.60,14.85,101.25,
3357576,81.05,982.42,-78.12,6.49,39.97,12.47,-14.25,16.20,101.70,
3377584,43.95,978.52,106.45,10.26,40.67,13.24,-13.35,16.35,100.20,
4818132,-216.80,-940.92,-215.82,72.79,-64.21,-1.91,6.45,-59.70,90.60,
4838139,-219.73,-959.47,-24.41,63.68,-49.71,-14.24,6.60,-57.30,94.65,
4858146,-295.41,-999.02,-39.06,40.63,-2.34,-54.11,5.55,-59.55,93.30,
4878153,-164.55,-1015.62,-100.10,29.19,37.24,-76.53,3.60,-58.65,95.10,
4898163,-167.48,-1008.30,-11.72,13.65,42.55,-80.03,5.10,-59.70,94.80,
4918172,-250.98,-1191.41,-56.15,-11.28,43.57,-99.73,4.05,-58.65,95.85,
4938180,65.92,-1011.72,-38.57,-32.15,40.50,-123.28,4.05,-58.20,94.80,
4958190,200.68,-1051.27,-27.34,-65.08,22.08,-58.90,1.35,-58.80,93.90,
4978196,126.95,-951.17,-121.58,-87.68,16.29,-0.29,-0.30,-58.80,93.90,
4998202,-16.11,-963.87,-416.02,-65.94,32.21,23.19,1.50,-58.65,92.40,
5018208,-145.51,-1015.62,-437.50,1.66,25.42,31.22,1.80,-59.40,91.65,
5038213,-168.46,-1000.49,-407.23,42.73,5.71,12.93,1.20,-58.95,91.95,
5058220,-56.64,-991.21,-189.94,53.50,25.25,-4.26,1.05,-59.55,91.20,
5078225,-84.47,-1017.09,-76.66,44.82,33.73,-12.43,2.40,-58.80,91.50,
5098230,-14.65,-1016.11,-21.00,21.24,32.93,-11.53,3.60,-58.95,93.45,
5118240,-16.60,-1004.39,-42.48,3.98,35.91,-7.21,2.25,-58.65,93.75,
5138247,-9.28,-1023.44,-208.01,-3.57,40.82,-9.34,2.70,-58.05,93.90,
5158254,2.44,-1006.35,-69.34,7.85,24.46,0.66,2.55,-60.00,93.75,
5178258,27.83,-984.86,-36.13,-2.09,9.82,14.60,3.45,-57.75,92.55,
5198264,38.09,-988.28,-73.73,-23.07,12.64,32.99,3.30,-57.45,95.10,
5218274,-128.91,-1006.84,-187.99,-24.47,13.18,28.50,3.60,-58.20,93.00,
5238283,-164.55,-995.12,-271.97,-7.71,14.29,12.61,4.20,-57.75,93.60,
5258293,-145.51,-978.52,-228.03,14.60,10.17,-1.86,3.75,-58.05,92.55,
5278298,-86.43,-968.75,-52.73,24.81,-0.27,-19.15,4.95,-57.75,94.65,
5298306,42.48,-981.93,5.86,-3.80,8.40,-10.32,4.20,-58.50,92.85,
5318312,-29.30,-1005.37,-109.86,-18.35,15.25,-1.60,2.25,-58.65,93.00,
5338319,-61.52,-1009.77,-191.41,-17.31,17.27,-2.47,4.35,-58.65,93.45,
5358324,-59.08,-978.52,-172.85,-13.21,15.16,0.35,3.60,-58.20,93.45,
5378333,-41.50,-1003.91,-165.53,-8.06,9.01,0.05,5.25,-58.80,91.80,
5398343,-49.32,-1000.49,-171.39,-1.74,2.09,7.18,6.00,-57.75,92.25,
5418352,-36.13,-989.75,-122.07,-2.67,1.34,11.25,5.70,-58.65,92.40,
5438362,-97.17,-1012.21,-200.68,-4.58,-1.33,15.94,4.20,-59.55,92.25,
5458367,-133.30,-988.28,-235.35,7.04,-0.81,9.08,5.70,-58.95,93.45,
5478374,-99.61,-1017.58,-234.38,20.81,7.04,-5.65,5.40,-58.20,93.45,
5498380,-101.56,-1001.95,-183.11,33.42,1.13,-17.22,5.55,-58.80,92.55,
5518389,17.58,-979.98,28.32,22.73,3.19,-16.08,5.40,-57.45,93.75,
5538395,9.77,-987.79,16.11,-4.75,2.35,-7.53,4.50,-58.05,93.60,
5558402,-23.93,-1019.04,-110.35,-18.49,2.17,1.13,4.95,-57.75,94.35,
5578410,-76.66,-1031.25,-196.29,-12.41,-2.43,2.49,4.35,-57.90,93.75,
5598415,-80.57,-1011.23,-215.33,0.27,2.38,-3.66,5.40,-58.20,92.70,
5618423,-57.13,-997.07,-117.68,7.48,3.80,-3.54,4.35,-59.70,91.95,
5638433,-28.32,-997.56,-81.05,2.92,2.26,-3.79,4.65,-58.20,94.50,
5658441,-44.43,-1005.86,-151.86,0.84,7.51,4.20,5.25,-59.85,94.95,
5678449,-80.08,-1005.86,-137.70,-1.60,9.76,9.10,4.95,-59.55,94.35,
5698456,-92.77,-994.14,-127.93,-1.21,7.10,-0.73,3.30,-58.95,94.05,
5718463,-78.61,-1014.65,-164.06,5.94,9.13,-5.69,5.40,-59.70,93.00,
5738472,-58.59,-1004.88,-104.00,9.48,5.37,-11.22,5.25,-58.80,93.90,
5758478,-19.04,-993.16,-67.38,3.28,9.60,-10.05,5.70,-57.45,95.55,
5778484,-1.46,-1009.77,-107.91,-10.87,17.05,-4.96,3.75,-59.10,93.60,
5798494,-62.99,-1005.86,-127.93,-15.71,12.95,0.24,5.10,-58.95,93.75,
5818498,-66.89,-979.49,-136.72,-8.05,7.42,-1.28,4.50,-57.00,94.35,
5838506,-83.50,-1004.88,-166.50,-0.06,2.89,-2.41,4.65,-57.90,93.75,
5858515,-9.28,-1007.81,-104.49,5.69,3.39,-3.31,4.65,-59.40,93.00,
5878525,-41.50,-1021.97,-147.95,1.28,5.77,0.63,4.95,-58.80,92.55,
5898531,-78.12,-986.82,-117.68,2.03,4.55,-0.89,4.20,-59.55,93.30,
5918538,-57.13,-989.26,-136.23,0.11,3.50,-1.48,4.50,-58.80,93.90,
5938547,-57.13,-996.58,-130.37,0.98,-2.49,-0.41,5.10,-58.20,94.05,
5958554,-50.29,-1008.79,-116.21,0.09,-0.15,-3.21,4.95,-58.80,94.95,
5978560,-25.88,-1020.51,-131.35,-0.63,2.09,-6.14,4.95,-57.75,94.05,
5998565,-30.27,-1004.39,-168.46,-2.15,8.82,-9.36,4.95,-57.75,93.30,
6018575,-66.41,-1002.44,-135.25,-0.66,5.85,-4.66,4.50,-59.10,94.65,
6038581,-55.18,-1000.00,-129.39,2.58,-0.35,0.26,3.30,-59.40,93.60,
6058588,-56.15,-994.63,-122.07,6.24,2.26,-2.09,5.25,-57.00,92.85,
6078595,-48.83,-1001.46,-94.24,4.23,-0.06,-0.60,4.95,-57.75,94.35,
6098601,-23.93,-1015.14,-109.86,1.53,4.29,-2.43,3.75,-58.50,92.55,
6118610,-64.45,-1021.00,-148.44,7.50,4.23,-4.79,5.10,-58.95,92.40,
6138616,-49.32,-997.07,-107.42,4.95,6.27,-6.20,5.55,-58.80,94.35,
6158624,-29.79,-991.21,-68.36,0.20,10.17,-0.99,5.25,-59.10,93.60,
6178633,-41.50,-1014.65,-104.49,-1.08,9.19,3.10,6.00,-57.00,95.25,
6198639,-77.64,-994.63,-146.97,4.18,5.62,4.15,5.10,-58.65,95.10,
6218650,-59.08,-986.82,-121.58,6.27,5.01,3.65,5.25,-58.80,94.65,
6238660,-60.55,-1003.91,-98.63,10.73,-2.78,-4.44,4.65,-58.95,94.80,
6258670,-25.88,-1017.58,-93.26,11.45,0.95,-6.18,4.95,-57.75,96.00,
6278678,-29.30,-1011.23,-78.61,2.20,4.60,-4.60,4.65,-58.95,94.50,
6298684,-32.23,-1019.53,-68.85,-3.66,4.72,-1.92,4.95,-57.00,95.25,
6318693,-36.13,-999.02,-74.22,-12.11,0.72,-0.90,5.25,-57.75,94.65,
6338701,-50.29,-1006.35,-138.67,-9.66,1.39,-3.16,4.35,-58.20,93.00,
6358711,-30.27,-1016.11,-147.95,-3.71,3.02,-4.41,5.55,-57.30,94.95,
6378718,-74.71,-999.02,-113.77,4.76,4.35,-3.91,6.00,-57.75,94.35,
6398722,-19.53,-1023.93,-89.84,3.54,4.09,-3.62,6.00,-57.00,94.95,
6418732,-22.95,-1009.28,-55.66,0.40,0.32,-1.01,5.25,-58.05,96.00,
6438737,-43.46,-1017.09,-91.80,-3.54,2.56,1.39,4.35,-57.15,96.15,
6458746,-55.18,-1012.21,-132.32,-2.12,2.75,0.31,5.25,-58.80,94.65,
6478755,-58.59,-1016.11,-108.40,-1.95,0.29,-1.04,4.35,-58.65,94.05,
6498765,-31.25,-1010.74,-129.88,3.39,1.45,0.31,5.10,-58.65,94.05,
6518776,-47.85,-1016.60,-122.56,5.33,3.13,-0.99,5.25,-58.05,94.95,
6538784,-23.93,-1007.32,-102.05,3.74,3.02,-4.35,5.10,-58.20,94.80,
6558793,-40.04,-995.12,-74.22,-1.34,3.97,-3.33,4.20,-58.50,94.65,
6578802,-41.50,-994.14,-108.40,-2.41,3.56,-3.57,5.10,-58.95,93.75,
6598811,-53.22,-993.65,-113.28,0.11,4.82,-0.24,6.30,-57.30,94.65,
6618818,-34.18,-1016.60,-106.93,-5.39,4.64,-1.65,5.70,-57.15,94.80,
6638827,-41.50,-1004.88,-116.70,-4.95,0.44,-0.34,3.60,-58.65,94.50,
6658839,-67.87,-1016.11,-113.77,-0.95,4.23,1.18,4.35,-56.85,95.10,
6678850,-25.88,-1011.72,-125.49,2.05,-0.23,-1.27,6.00,-57.30,93.90,
6698858,-60.06,-1002.44,-88.38,3.63,0.35,-1.80,5.40,-57.45,95.55,
6718865,-28.81,-1018.55,-89.84,-0.46,0.26,-0.50,5.40,-58.20,94.50,
6738873,-38.57,-992.68,-123.05,-1.36,0.78,2.90,5.70,-58.65,95.55,
6758882,-67.87,-1004.39,-138.67,-0.23,1.71,3.07,6.30,-57.75,93.90,
6778893,-52.25,-1010.74,-116.21,5.71,-2.29,-2.17,5.40,-56.85,95.10,
6798904,-46.88,-1003.42,-86.91,4.55,-2.21,-3.37,5.25,-59.55,93.90,
6818915,-45.41,-1007.81,-83.50,2.29,-0.79,-7.57,5.10,-57.90,95.10,
6838921,-16.60,-991.70,-87.40,0.82,6.35,-4.66,4.05,-57.45,94.80,
6858927,-56.64,-998.54,-95.70,-4.05,7.89,-6.72,4.65,-57.90,95.10,
6878936,-33.20,-1004.39,-68.85,-4.73,0.03,-3.85,5.25,-57.30,94.35,
6898941,-46.39,-987.30,-103.03,-6.98,1.54,-3.34,6.00,-57.75,95.25,
6918945,-20.02,-1005.37,-102.05,-3.71,6.96,-2.44,6.45,-57.90,94.50,
6938950,-41.50,-1011.23,-113.28,-5.45,4.52,-0.64,4.35,-57.45,95.55,
6958955,-36.62,-1020.51,-110.84,-6.49,3.95,-0.21,6.60,-57.00,94.35,
6978960,-48.83,-1016.60,-135.74,-3.28,1.18,-1.65,4.05,-56.85,94.05,
6998971,-83.50,-994.63,-109.86,2.40,1.01,0.41,5.40,-58.20,94.50,
7018980,-19.53,-1010.25,-86.91,4.14,3.10,-2.32,4.65,-58.65,93.75,
7038984,-59.08,-1002.93,-68.36,2.27,-0.56,-3.22,6.15,-58.65,94.50,
7058990,-37.11,-1000.00,-103.03,-1.66,-1.25,-6.67,6.00,-58.50,94.95,
7078999,-56.64,-996.09,-131.35,0.98,1.40,-2.58,5.70,-57.90,94.50,
7099005,-25.39,-1010.25,-87.40,1.47,0.53,-4.08,4.50,-58.50,93.60,
7119011,-40.04,-1004.39,-115.23,-0.05,5.37,-2.02,5.40,-58.20,95.85,
7139017,-27.83,-1020.02,-88.87,-3.68,-0.50,0.96,4.50,-57.30,94.95,
7159025,-41.02,-1012.70,-114.26,-0.08,0.06,-1.65,4.20,-58.05,94.95,
7179030,-35.64,-1004.88,-92.29,-0.32,0.02,-1.16,6.45,-58.20,95.85,
7199040,-39.06,-1010.25,-82.03,-1.27,-1.53,0.64,2.70,-57.75,93.30,
7219049,-39.55,-999.51,-86.91,-2.38,3.18,-2.43,4.65,-58.20,93.75,
7239056,-29.30,-1021.00,-101.07,-5.54,0.58,-1.10,4.65,-57.15,95.55,
7259062,-45.90,-1002.44,-98.14,-5.45,2.12,-0.99,6.00,-57.30,94.35,
7279071,-45.90,-1003.42,-107.42,-3.45,0.56,-1.08,4.65,-57.90,95.55,
7299078,-50.78,-1006.84,-126.95,-2.15,-1.02,0.85,5.10,-57.15,94.05,
7319083,-47.36,-1013.18,-101.07,2.31,4.82,-6.11,5.70,-56.85,95.55,
7339088,-39.06,-1013.18,-81.05,-1.47,1.83,-3.74,5.70,-58.20,94.50,
7359093,-44.92,-991.21,-106.93,-3.71,-0.15,0.79,4.50,-58.95,94.05,
7379103,-35.64,-1007.32,-115.72,-1.68,0.34,-1.86,6.00,-58.50,96.30,
7399113,-21.97,-1019.53,-101.07,-0.35,0.99,1.77,4.20,-57.00,93.90,
7419119,-44.43,-996.58,-104.49,-1.76,0.52,-2.24,4.95,-57.75,94.95,
7439128,-43.46,-999.51,-103.52,-0.95,2.90,-3.28,5.70,-57.45,95.55,
7459134,-51.27,-1006.84,-103.52,-1.22,3.60,-1.18,5.40,-58.95,94.80,
7479142,-33.69,-1002.44,-80.57,0.44,2.41,-1.65,5.70,-57.15,93.75,
7499148,-30.27,-1001.46,-106.45,-2.50,2.05,-0.79,4.05,-57.15,95.55,
7519156,-58.59,-1000.00,-96.68,-2.12,0.84,-1.77,5.40,-57.90,95.10,
7539166,-54.69,-1025.39,-93.26,-2.03,0.76,-2.93,5.10,-57.90,94.50,
7559177,-26.86,-1001.95,-100.10,-1.13,2.75,-3.28,4.95,-59.55,93.90,
7579187,-41.02,-1002.44,-84.47,-2.27,2.96,-1.91,6.00,-57.00,94.35,
7599191,-38.09,-1012.21,-83.98,-2.46,3.19,-2.44,3.75,-58.05,96.30,
7619200,-33.20,-1013.67,-97.17,-4.02,0.46,-3.18,5.70,-55.65,94.50,
7639210,-57.62,-1021.00,-101.56,-2.21,-0.31,1.92,6.15,-57.90,94.80,
7659220,-44.43,-1009.28,-81.54,-1.86,0.27,-0.70,6.15,-59.40,95.85,
7679226,-43.46,-1004.39,-94.73,2.78,4.11,-2.78,6.00,-58.80,94.65,
7699235,-38.09,-997.07,-82.52,0.24,2.31,-1.53,5.10,-57.15,94.50,
7719243,-34.18,-1004.88,-85.94,-4.43,0.63,0.38,5.70,-56.85,95.10,
7739252,-44.43,-1005.86,-86.91,-5.89,-0.18,0.55,4.95,-58.05,95.25,
7759263,-56.64,-999.02,-104.00,-2.66,0.90,-2.32,4.50,-57.30,96.00,
7779268,-49.32,-996.58,-84.96,-5.05,3.57,-3.63,5.55,-57.75,94.95,
7799275,-30.27,-1004.88,-116.21,-0.46,3.69,-2.29,4.05,-57.15,95.10,
7819279,-32.23,-1020.02,-97.17,-2.69,1.57,-2.93,4.65,-57.90,94.05,
7839288,-60.55,-1020.51,-134.77,-0.64,-1.73,0.55,5.10,-58.65,94.80,
7859296,-49.32,-1026.37,-107.42,1.22,0.95,-2.56,5.40,-58.20,95.85,
7879306,-39.06,-1020.02,-105.96,-0.53,0.82,0.82,5.70,-58.20,94.50,
7899318,-28.32,-1007.81,-88.38,-2.92,2.08,-0.53,5.70,-58.65,94.80,
7919329,-43.95,-1004.88,-102.54,-1.50,3.76,-2.15,6.45,-57.45,95.55,
7939334,-43.95,-1005.86,-103.52,1.16,1.37,-3.73,5.10,-57.45,93.75,
7959344,-56.64,-998.05,-92.29,-0.55,0.11,-1.33,3.60,-57.90,94.50,
7979353,-51.27,-999.51,-108.40,-1.57,-0.26,-4.27,4.50,-57.75,96.00,
7999358,-38.57,-995.61,-77.15,0.67,2.82,-5.34,6.00,-57.75,94.35,
8019366,-24.90,-1002.44,-79.10,-2.06,1.88,0.09,4.95,-57.30,94.35,
8039375,-33.69,-1000.49,-107.42,-2.49,2.73,-4.29,5.25,-56.25,96.30,
8059380,-60.55,-1009.28,-116.70,1.19,2.14,-2.08,6.00,-58.50,94.35,
8079388,-52.73,-1000.98,-81.05,-0.06,0.20,0.78,4.05,-57.45,95.55,
8099395,-56.64,-1005.86,-93.75,1.63,1.88,-2.18,5.10,-58.65,95.10,
8119400,-25.88,-1021.48,-79.10,-0.35,0.98,-2.50,4.50,-57.75,95.25,
8139411,-55.66,-1010.74,-83.98,-1.54,-0.99,1.76,3.60,-57.15,95.55,
8159420,-49.80,-999.51,-104.98,-5.85,2.55,-3.18,5.25,-57.75,96.75,
8179429,-54.69,-1021.97,-117.19,-1.34,-0.81,1.97,6.15,-57.15,94.80,
8199438,-52.25,-1013.67,-88.38,-0.06,3.15,-2.08,4.50,-56.25,95.25,
8219446,-37.11,-1011.72,-75.20,-1.21,1.18,-0.40,4.95,-57.30,94.35,
8239453,-54.20,-1012.21,-97.17,-3.71,5.25,-0.31,5.25,-58.05,94.35,
8259460,-50.29,-1007.32,-107.91,-0.63,0.58,-2.47,5.55,-57.30,94.95,
8279468,-45.41,-1005.37,-107.91,1.24,0.43,-2.37,4.95,-57.75,95.25,
8299475,-48.34,-1013.18,-84.96,-0.90,1.27,-3.01,4.05,-58.65,94.80,
8319483,-39.06,-1013.67,-97.66,-3.69,-0.34,-3.56,5.10,-57.45,94.05,
8339493,-50.29,-994.14,-92.29,0.03,2.08,-0.69,4.65,-57.45,94.80,
8359499,-34.67,-1002.93,-75.68,-2.18,0.15,-2.05,5.25,-58.80,94.95,
8379508,-42.48,-1002.44,-106.93,-1.74,-2.03,1.66,5.10,-58.20,94.50,
8399514,-55.18,-1023.44,-111.82,-3.19,-2.27,-0.52,6.90,-57.90,94.50,
8419525,-45.90,-1011.23,-92.77,-3.94,1.13,0.27,6.00,-58.05,94.35,
8439532,-37.11,-1012.21,-104.00,-3.21,3.30,-2.06,4.65,-57.45,96.15,
8459543,-60.06,-1010.74,-102.54,-1.15,1.77,-2.70,3.75,-56.55,93.90,
8479552,-35.16,-996.58,-97.66,1.04,1.83,-1.60,4.35,-58.20,94.80,
8499560,-41.02,-1003.91,-82.52,-3.77,1.51,-2.60,6.00,-56.25,95.70,
8519571,-45.41,-1009.77,-75.68,-2.93,-1.86,0.79,4.65,-57.15,94.50,
8539582,-36.62,-1005.37,-82.52,-5.30,3.47,-1.36,5.10,-58.20,94.50,
8559587,-54.69,-992.68,-114.26,-2.24,0.78,-2.67,5.25,-56.25,93.90,
8579596,-31.74,-1002.44,-109.38,0.41,4.21,-2.46,3.60,-57.15,95.10,
8599601,-56.15,-1024.90,-117.19,2.76,1.91,-2.00,5.70,-57.45,95.85,
8619611,-24.90,-1025.39,-83.50,0.63,0.92,-0.84,6.15,-57.45,94.50,
8639620,-40.53,-1014.16,-120.61,-1.94,0.96,3.05,4.95,-57.75,96.00,
8659629,-48.34,-999.02,-99.61,-0.63,-0.43,0.31,5.55,-58.05,94.65,
8679638,-49.32,-1010.25,-96.68,-0.93,4.95,-4.31,5.10,-57.90,94.50,
8699645,-44.92,-998.05,-84.47,1.76,0.46,2.20,6.15,-57.15,93.75,
8719650,-57.13,-989.75,-69.34,-1.51,0.55,-1.15,5.25,-55.80,94.95,
8739654,-54.69,-994.14,-85.45,-3.37,3.24,2.56,4.50,-58.50,94.05,
8759664,-61.52,-998.05,-98.14,-1.68,2.46,-2.15,5.25,-58.50,95.70,
8779674,-59.57,-1019.04,-104.00,-2.34,0.29,-1.07,6.30,-57.30,93.60,
8799686,-43.46,-1011.72,-93.75,-3.62,4.92,-4.55,5.10,-58.65,94.50,
8819694,-55.18,-1014.65,-111.82,-4.55,2.14,-3.60,4.95,-57.75,95.25,
8839701,-33.69,-1002.93,-104.49,-0.81,-0.70,-2.05,5.10,-57.15,94.05,
8859708,-30.27,-999.02,-104.49,-0.52,3.19,-3.31,3.30,-58.20,94.80,
8879719,-43.46,-997.56,-108.40,0.00,1.42,-0.73,4.65,-59.40,92.70,
8899726,-39.06,-997.56,-101.56,-1.16,-0.47,-0.66,4.35,-57.90,94.50,
8919735,-66.89,-1026.86,-76.17,0.93,1.91,-0.82,5.70,-58.65,94.05,
8939745,-33.20,-991.21,-86.91,-0.53,2.17,-2.66,5.10,-56.85,94.50,
8959750,-60.06,-1001.95,-92.29,-3.50,-0.09,-2.11,4.35,-56.40,94.05,
8979754,-49.80,-1021.00,-110.84,0.44,2.84,-1.02,5.25,-55.80,94.95,
8999763,-44.43,-1016.11,-98.14,-0.35,4.09,1.16,5.10,-57.90,94.50,
9019768,-42.97,-1004.39,-83.01,-2.92,0.56,1.95,5.40,-56.40,94.50,
9039774,-58.11,-1001.95,-100.10,-4.64,-0.49,-2.37,5.10,-56.40,94.50,
9059782,-59.08,-1013.18,-116.70,-3.01,2.32,-2.61,4.50,-58.80,94.35,
9079792,-52.25,-1003.91,-101.56,3.01,5.77,-0.92,4.95,-57.30,93.90,
9099803,-40.04,-1009.28,-73.24,0.27,0.46,-1.82,6.00,-58.05,94.65,
9119813,-37.11,-1013.18,-84.47,-2.15,0.08,-2.81,4.65,-57.15,94.05,
9139820,-48.34,-1012.70,-106.45,-2.99,0.14,-1.65,5.25,-57.75,93.90,
9159826,-60.55,-993.16,-113.28,-2.52,2.50,-0.95,6.00,-57.30,94.65,
9179833,-27.83,-1001.95,-92.29,-1.34,0.64,2.20,4.95,-57.30,95.25,
9199841,-43.46,-1011.72,-94.24,-2.95,0.79,1.66,5.25,-58.05,94.35,
9219851,-41.50,-1006.35,-111.82,-3.56,0.08,-2.95,4.95,-57.00,94.65,
9239863,-39.06,-1008.30,-102.54,-2.35,1.68,-2.96,6.00,-56.25,94.65,
9259869,-40.04,-1015.62,-96.68,-2.93,1.85,-1.62,4.50,-58.50,96.00,
9279878,-44.43,-1001.46,-97.66,-0.32,-0.49,-0.67,6.60,-58.05,94.35,
9299883,-40.53,-1016.60,-111.33,-1.15,-0.56,-1.40,5.40,-56.85,94.80,
9319892,-71.78,-1008.79,-105.96,0.53,2.99,-2.27,5.10,-58.65,94.05,
9339899,-21.97,-1019.53,-90.33,0.79,1.82,-0.41,5.70,-57.15,95.10,
9359907,-49.80,-1000.98,-108.40,-0.46,1.56,-1.18,5.55,-57.30,96.30,
9379917,-32.71,-997.56,-86.43,-0.29,0.03,-2.24,6.15,-58.65,95.55,
9399922,-44.43,-1005.86,-86.91,-3.83,1.73,0.06,3.60,-56.40,93.45,
9419926,-41.50,-1009.28,-100.59,-1.47,-0.02,-0.70,4.35,-56.85,94.05,
9439934,-55.18,-1018.55,-100.10,-1.22,1.79,-3.08,5.25,-57.75,95.25,
9459940,-42.48,-1004.88,-96.19,-1.92,3.82,-2.78,5.40,-56.40,94.80,
9479946,-47.85,-1006.84,-100.59,0.66,1.05,-2.53,5.40,-57.15,94.50,
9499955,-23.93,-1021.48,-98.63,-1.63,-0.11,-0.06,3.75,-57.30,95.70,
9519960,-29.79,-1011.23,-112.30,-3.65,2.14,-1.95,4.35,-58.20,95.10,
9539964,-60.55,-1014.65,-139.16,-3.18,2.00,0.27,5.55,-57.30,94.65,
9559972,-59.08,-997.07,-116.70,2.92,2.89,-1.62,4.20,-56.55,94.35,
9579976,-58.11,-1009.28,-86.43,0.73,0.02,-1.22,4.35,-57.45,94.05,
9599981,-38.57,-998.54,-92.29,-0.60,-0.43,-3.28,5.25,-58.05,94.35,
9619985,-43.46,-1002.93,-94.73,1.25,0.75,0.99,6.15,-57.15,94.50,
9639994,-39.55,-992.19,-83.01,0.06,1.48,-3.97,6.00,-56.25,95.25,
9660002,-53.22,-1009.77,-84.47,-2.15,3.68,-1.92,5.40,-57.15,95.85,
9680009,-57.62,-1007.32,-102.54,-2.21,1.37,-0.06,5.55,-57.75,94.35,
9700017,-47.85,-1015.14,-99.12,-0.50,0.90,-1.79,5.10,-57.90,95.10,
9720022,-35.16,-1003.42,-106.93,0.02,1.63,-2.03,4.05,-57.15,95.10,
9740030,-51.27,-1019.04,-89.84,1.47,-0.84,-1.98,4.20,-57.30,94.65,
9760038,-48.34,-1008.30,-68.85,-0.98,-0.43,1.13,6.00,-56.25,94.35,
9780050,-33.20,-1003.42,-85.94,0.44,-0.52,-2.49,5.40,-56.10,94.50,
9800060,-48.83,-1004.88,-98.14,-0.63,-3.30,2.67,5.25,-57.30,93.90,
9820069,-52.73,-993.65,-89.84,0.38,0.41,2.03,4.20,-56.55,96.00,
9840077,-55.66,-1014.65,-185.06,1.21,-7.36,2.93,5.10,-57.90,96.15,
9860087,-29.30,-1005.37,-70.31,2.00,-2.53,0.08,5.10,-56.85,94.80,
9880097,-40.53,-1008.79,-81.54,-1.80,0.98,-0.85,5.70,-57.45,94.80,
9900102,-60.06,-1021.00,-95.70,5.98,-1.33,-2.47,6.90,-57.90,95.85,
9920111,-60.55,-1004.88,-87.89,4.43,-4.00,1.86,6.15,-56.40,95.55,
9940120,-54.69,-1005.37,-88.87,4.98,-5.07,2.21,3.75,-58.50,94.65,
9960125,-78.61,-996.58,-61.04,1.54,-3.57,4.23,6.30,-58.05,95.25,
9980135,-41.99,-1008.30,-88.87,-4.14,-4.32,0.52,6.45,-57.45,95.85,
10000144,-69.34,-995.61,-42.97,-0.03,-6.15,5.40,4.50,-57.30,94.95,
10020151,-70.31,-1001.95,-52.25,-1.66,-10.14,9.24,5.55,-56.25,94.80,
10040161,-81.05,-1019.04,-55.18,-2.78,-5.86,9.69,7.05,-56.55,95.10,
10060166,-103.03,-1010.74,-73.73,-0.87,-3.94,5.08,6.15,-56.40,95.25,
10080175,-65.92,-1013.18,-39.55,-5.18,-7.95,1.56,6.15,-56.40,94.80,
10100184,-57.62,-1000.98,-103.03,-5.80,-8.03,5.86,5.55,-57.75,96.75,
10120195,-71.29,-1009.77,-115.23,-1.10,-16.38,7.73,5.70,-56.40,94.80,
10140200,-66.41,-1041.99,-110.35,2.31,-26.99,15.94,5.70,-56.85,96.15,
10160206,-115.23,-1016.60,-81.54,0.31,-32.23,10.26,6.30,-57.30,95.25,
10180216,-121.58,-990.23,-100.10,4.08,-30.66,7.66,5.25,-57.75,94.95,
10200224,-111.33,-1021.97,-162.60,-0.03,-26.84,9.73,5.25,-57.00,95.70,
10220231,-132.81,-1024.90,-85.94,8.60,-13.86,2.18,5.40,-56.85,94.80,
10240241,-82.03,-1021.97,-15.14,-1.91,-19.66,7.02,5.10,-55.35,95.55,
10260249,-131.84,-1023.44,57.13,-33.10,78.55,-6.41,5.40,-55.65,95.55,
10280257,18.55,-991.21,-70.31,-47.01,110.84,-2.34,5.25,-55.80,94.65,
10300261,5.86,-997.07,-106.45,-49.51,-22.03,30.96,6.60,-57.75,93.90,
10320267,-99.12,-975.10,-96.68,-48.98,-32.34,49.10,7.20,-58.95,93.45,
10340276,-192.87,-961.43,-166.02,-47.74,20.43,45.33,6.60,-57.30,93.30,
10360286,-138.18,-961.91,-143.55,-50.47,42.81,33.63,7.20,-58.95,93.75,
10380295,-118.65,-965.33,-200.68,-49.11,43.77,41.65,10.35,-58.65,91.65,
10400302,-130.86,-947.27,-260.25,-37.89,40.41,44.52,10.20,-58.80,91.20,
10420311,-122.56,-953.12,-236.33,-24.23,3.80,60.03,10.95,-58.80,90.15,
10440319,-118.16,-937.01,-147.46,-24.44,-31.27,78.53,12.00,-59.10,90.45,
10460328,-208.50,-936.52,-203.12,-25.08,20.79,84.26,12.15,-56.85,90.00,
10480338,-265.62,-915.53,-191.89,-35.30,-4.46,92.79,14.25,-58.20,90.30,
10500347,-299.80,-904.79,-125.00,-54.58,-15.40,91.82,15.45,-58.50,89.10,