micros,aX,aY,aZ,gX,gY,gZ,mX,mY,mZ,
1216769,-78.12,-15.14,1014.16,4.81,0.46,0.60,24.75,-22.65,105.75,
1236778,-31.74,0.00,1044.43,3.86,1.92,-6.31,26.85,-21.90,105.75,
1256788,-53.22,15.62,1042.48,-1.30,7.05,0.05,23.25,-21.90,104.70,
1276792,-24.41,0.49,1011.72,-4.00,3.48,-1.94,24.00,-21.90,105.45,
1296800,-42.97,-3.91,1033.20,-1.74,3.69,0.49,24.90,-22.05,106.20,
1316806,-48.34,4.88,1043.46,1.34,-0.20,-2.84,24.45,-22.35,106.65,
1336810,-45.41,-23.44,980.47,-4.96,-2.85,0.89,25.20,-22.80,105.90,
1356819,-60.06,-21.00,1003.91,-1.62,-4.75,-2.08,25.65,-22.05,106.20,
1376829,-24.90,3.91,1059.57,2.72,-4.27,1.39,25.65,-22.05,105.60,
1396837,-43.95,-0.49,1034.67,-0.44,-0.67,-3.69,24.00,-20.70,105.00,
1416845,-7.32,15.62,1074.71,2.92,0.20,-3.01,24.45,-21.75,106.65,
1436854,-20.51,19.53,1029.79,-2.67,-2.21,-2.84,24.15,-21.30,106.95,
1456858,-42.48,-1.46,1002.44,-2.64,-1.66,-1.24,24.15,-21.75,106.20,
1476866,-11.23,2.44,1002.93,0.18,-3.83,-1.11,24.75,-22.20,106.35,
1496877,-37.60,-17.58,1041.50,-3.68,2.82,0.08,22.05,-22.80,106.20,
1516884,-51.27,-11.72,1065.43,-6.38,3.25,-0.46,24.45,-22.35,107.25,
1536890,-30.27,-18.07,1014.65,-8.41,7.68,4.90,25.05,-21.15,105.45,
1556901,-54.20,-11.23,990.72,-1.04,1.53,0.60,22.95,-21.90,107.10,
1576907,-26.37,-7.81,1018.55,2.85,3.42,-1.02,24.45,-21.75,105.60,
1596915,-33.20,-5.86,1060.55,-0.53,1.73,0.44,23.40,-22.35,107.25,
1616919,-43.95,5.86,1024.41,-2.23,0.96,-1.48,23.10,-20.55,106.20,
1636929,-44.43,-8.30,1027.83,-7.05,5.11,-1.36,25.05,-22.65,106.35,
1656937,-28.81,-14.16,1017.09,-3.60,7.80,-1.04,22.80,-23.10,105.90,
1676948,-31.74,-2.44,1032.23,0.56,1.59,0.78,24.90,-22.80,105.15,
1696952,-58.59,-7.32,1031.74,-1.56,-1.39,-2.52,24.00,-22.20,106.05,
1716960,-52.25,0.49,1021.48,-0.06,-5.10,-1.89,24.90,-23.10,106.20,
1736966,-24.90,-16.11,1023.93,0.43,2.26,-2.50,26.40,-21.15,105.45,
1756971,-26.86,-8.79,1096.68,-2.41,4.35,2.66,24.30,-21.90,104.70,
1776977,-65.92,-9.77,1063.48,-4.72,2.99,-1.40,24.90,-22.35,105.15,
1796987,-25.39,0.49,1052.25,-7.71,2.15,-0.05,24.90,-22.05,106.20,
1816992,-54.20,-11.72,988.28,-7.94,-2.55,-4.73,24.45,-22.35,106.20,
1836997,-12.21,-1.46,995.12,1.60,-6.95,-2.87,24.90,-22.80,105.90,
1857006,-23.44,-14.65,1025.39,2.53,0.72,-4.05,22.80,-22.35,106.20,
1877011,-55.18,-22.95,1011.23,-1.19,3.08,-2.02,25.35,-22.65,104.70,
1897020,-22.95,8.30,1087.89,-0.29,0.89,-0.63,24.15,-21.75,105.90,
1917028,-34.67,-15.14,1034.67,-0.38,0.38,0.03,24.75,-21.45,106.80,
1937033,-28.32,-18.55,1034.18,-2.46,-2.24,-2.90,24.30,-22.20,105.75,
1957044,-32.23,-16.11,990.72,-3.54,6.67,-4.06,22.20,-21.45,105.75,
1977048,-22.95,-9.77,1049.80,-4.05,4.81,0.32,24.90,-21.75,105.90,
1997056,-30.76,-12.70,1008.79,0.96,4.98,-1.11,24.45,-22.80,105.90,
2017062,-37.11,-24.41,1019.53,-2.23,0.34,-2.09,24.75,-22.20,106.05,
2037069,-41.02,-13.18,1041.99,-1.95,-0.46,-1.44,25.95,-22.80,105.90,
2057076,0.00,-29.30,1039.06,-2.17,2.27,-1.66,23.85,-22.35,106.65,
2077082,-20.51,-20.02,995.61,0.03,5.07,3.57,23.40,-22.80,105.90,
2097093,-42.48,1.46,1047.85,-2.24,1.27,-0.75,24.00,-21.15,107.10,
2117103,-53.71,-12.21,1012.21,0.09,1.63,-5.82,24.90,-21.75,104.55,
2137110,-19.04,-5.86,1022.95,0.12,0.60,-2.40,23.70,-22.20,105.00,
2157121,-36.13,-14.65,1057.13,-3.53,1.31,-1.37,24.15,-22.05,106.65,
2177129,-35.16,-9.77,1043.95,-4.40,1.79,-0.89,24.45,-23.10,104.85,
2197135,-44.92,-7.32,1013.67,-0.85,-1.79,-1.42,24.90,-21.75,105.60,
2217144,-62.01,-10.25,1031.25,-2.35,3.33,0.38,24.75,-21.90,104.40,
2237154,-45.90,-20.51,918.95,-3.18,6.34,-0.12,24.75,-21.15,105.45,
2257161,-27.34,-8.30,1003.42,-5.37,6.12,-0.43,24.90,-22.80,106.65,
2277167,-25.39,-26.86,1061.52,0.96,3.21,-1.19,24.00,-22.65,105.00,
2297177,-73.73,-18.55,1023.44,1.11,1.19,1.80,23.70,-22.95,106.35,
2317188,-33.20,-13.67,1046.88,0.34,-2.12,2.12,23.70,-21.90,106.35,
2337193,-8.79,-11.72,1055.66,-0.47,1.68,3.74,24.75,-22.95,106.05,
2357201,-32.71,-2.93,1035.16,2.08,1.92,-1.11,25.20,-22.05,103.80,
2377207,-36.62,-21.48,1030.76,4.46,0.99,-2.46,24.90,-21.30,104.85,
2397214,-39.06,-17.58,1051.27,-2.84,-5.69,5.25,23.85,-22.05,106.65,
2417225,-42.48,-32.71,995.12,-0.89,-4.21,1.63,25.05,-22.20,106.80,
2437236,-59.57,-17.09,1004.88,-0.84,-1.36,2.12,24.90,-22.35,105.90,
2457243,-21.00,-8.79,1015.14,1.22,-1.47,2.05,24.00,-22.20,105.75,
2477250,-2.93,-3.42,1027.34,6.34,-0.27,2.69,25.20,-21.75,105.90,
2497255,-57.62,7.81,1048.83,4.32,0.17,-1.28,24.90,-22.35,104.85,
2517262,-55.66,-14.16,1045.41,1.19,3.40,0.87,23.70,-22.65,106.05,
2537269,-59.57,-18.55,1029.79,-2.93,-1.27,-2.55,24.90,-22.05,106.65,
2557277,-42.97,-45.90,1011.23,-2.26,-2.15,-0.41,24.30,-22.65,105.75,
2577286,-16.11,-38.09,1011.72,1.27,-1.33,2.46,24.75,-21.45,105.45,
2597298,-55.66,-12.21,997.07,0.52,-1.73,5.21,24.90,-22.80,105.15,
2617303,-42.97,-8.30,1031.25,3.62,1.28,-0.34,25.65,-21.75,105.15,
2637309,-71.78,-13.67,1052.73,0.40,5.65,2.95,25.80,-22.20,105.45,
2657317,-49.80,-18.07,1040.53,1.88,1.51,-1.91,24.90,-22.35,104.85,
2677324,-24.90,-37.60,1046.39,-0.20,-4.72,-0.82,24.30,-22.20,106.35,
2697331,-41.02,-27.34,1040.53,1.79,-8.67,-0.43,24.15,-21.30,105.90,
2717339,-69.82,-29.30,1001.46,2.55,-11.42,-4.53,24.15,-22.80,105.60,
2737348,-8.79,-26.37,1012.70,-2.64,-5.63,-0.67,24.30,-24.00,106.35,
2757353,-65.92,-24.41,1021.97,3.60,-4.44,0.05,24.75,-22.65,105.45,
2777363,-34.18,-17.58,1058.11,0.49,4.29,-1.60,23.70,-21.45,105.75,
2797370,-50.78,1.46,1030.27,-0.11,4.26,0.85,24.30,-21.15,105.75,
2817374,-6.35,-29.30,1008.30,0.38,-3.53,-0.85,26.10,-20.70,106.05,
2837380,-43.46,-21.97,1007.81,-0.38,-5.83,0.84,23.10,-22.05,104.85,
2857387,-47.85,-24.41,1004.88,4.11,-7.25,-2.78,25.05,-24.00,105.75,
2877393,-22.95,-24.41,1065.43,4.27,-1.13,2.43,25.05,-22.20,103.95,
2897400,-58.59,-17.09,1049.80,6.70,-2.00,-4.09,24.45,-22.35,105.15,
2917409,-5.86,-12.70,1066.89,-2.66,5.13,4.35,24.75,-22.20,104.70,
2937420,-47.85,-18.55,1031.74,0.61,3.31,2.89,25.05,-19.65,104.40,
2957431,-29.30,-13.18,1044.43,1.77,0.81,-0.70,23.70,-22.20,105.00,
2977438,-50.29,-4.39,1004.88,2.52,-0.58,0.92,25.65,-22.05,105.15,
2997445,-42.48,-26.37,1012.70,7.16,-3.39,-1.63,24.90,-21.00,105.15,
3017454,-35.64,-7.32,1048.83,3.40,-0.75,-0.85,25.35,-21.45,106.05,
3037460,-37.11,-26.86,1032.71,2.47,5.89,0.32,24.30,-20.70,106.35,
3057465,-69.34,-31.25,999.02,2.15,10.40,3.60,23.70,-21.45,105.75,
3077471,-77.15,-9.28,1034.67,6.17,2.49,2.98,23.85,-21.30,104.55,
3097478,-37.60,-12.70,1059.08,4.29,-4.69,-2.17,24.90,-22.35,105.15,
3117485,-55.18,10.25,1032.71,3.19,-3.05,0.63,24.75,-21.45,105.45,
3137495,-23.93,1.95,1041.50,1.04,-4.00,-0.90,24.75,-22.20,104.70,
3157502,-41.99,-9.28,1021.00,0.96,5.10,0.53,24.15,-22.05,105.90,
3177506,-68.85,-2.44,1028.81,0.75,1.33,1.73,25.65,-20.55,104.55,
3197511,-55.18,-16.60,1029.30,1.28,-1.36,-0.96,24.90,-21.75,104.55,
3217517,-49.80,-14.65,1038.09,5.08,-2.20,-1.50,24.75,-20.70,105.00,
3237522,-20.02,3.42,1052.73,3.92,-6.40,0.52,23.25,-22.20,105.00,
3257533,-58.11,-25.39,1026.86,-0.52,1.11,1.21,24.00,-21.90,104.70,
3277538,-42.97,-5.37,1008.79,-1.74,0.96,-2.23,25.20,-22.80,105.90,
3297548,-61.04,-0.49,1033.20,2.12,2.12,-0.81,25.05,-22.65,105.75,
3317556,-22.95,-18.55,1042.97,2.85,-0.66,3.71,23.25,-20.70,106.05,
3337561,-66.41,-1.46,1031.74,-0.47,-2.21,1.07,24.45,-22.35,105.90,
3357567,-28.32,-13.67,1021.48,2.98,-5.62,-0.18,23.25,-21.45,104.40,
3377575,-50.29,-11.72,1013.18,-1.42,-3.18,1.69,24.90,-22.05,104.85,
3397580,-13.67,-21.48,1059.08,1.88,-2.38,-0.21,23.70,-21.45,107.10,
3417584,-49.80,-9.77,1028.81,-0.32,0.61,0.38,24.90,-21.30,105.60,
3437594,-37.60,2.93,1052.25,1.88,-1.21,-0.96,24.45,-22.05,105.15,
3457601,-17.58,-23.93,1019.04,-1.33,-1.31,-3.13,24.00,-22.65,106.05,
3477611,-32.71,-32.23,1025.39,4.72,-5.51,-2.35,24.75,-22.20,104.40,
3497618,-24.41,-0.98,1066.41,-0.14,0.64,4.26,24.45,-22.35,104.55,
3517626,-40.53,-22.46,1021.00,-0.12,-2.38,-1.08,25.80,-22.65,105.00,
3537636,-27.34,-21.00,1046.39,3.07,-7.18,1.18,23.85,-22.80,105.90,
3557641,-89.36,-17.09,955.08,2.98,-1.80,0.76,24.00,-21.15,106.05,
3577648,-33.69,-0.98,1053.71,3.19,-2.60,-1.85,24.15,-22.05,104.85,
3597656,-10.25,9.77,1055.18,-3.15,2.27,3.44,26.25,-22.35,104.55,
3617663,-51.76,-6.84,1064.45,2.47,1.11,1.13,25.20,-22.35,106.95,
3637671,-12.21,-31.25,1017.09,3.05,3.19,-1.66,25.20,-21.75,106.20,
3657678,-30.27,-13.18,1046.88,4.46,-2.87,-0.40,24.15,-22.80,103.80,
3677689,-12.70,-10.25,1052.25,0.67,-1.73,-1.77,24.45,-22.05,106.20,
3697699,-31.74,-29.79,963.38,-0.93,1.62,1.42,24.30,-21.45,105.45,
3717704,-41.99,-13.18,1026.86,1.24,-0.18,0.60,25.65,-21.75,104.85,
3737713,-51.27,-18.55,1046.88,2.09,0.41,1.15,23.70,-21.15,106.05,
3757722,-38.57,9.28,1048.34,1.05,-2.70,-1.66,24.30,-22.65,105.75,
3777731,-23.93,-21.00,1011.72,0.17,-4.06,-1.51,23.10,-21.75,105.15,
3797738,-44.43,28.81,1061.04,-3.33,-11.33,1.88,24.15,-21.75,105.15,
3817746,-50.78,-21.97,1015.14,-1.53,0.14,1.71,25.05,-21.90,103.95,
3837756,-77.15,1.95,1004.39,7.74,-0.12,-1.76,25.05,-22.65,103.65,
3857762,-19.53,-8.79,1047.36,4.46,2.11,-3.50,25.20,-22.35,104.55,
3877768,-36.62,-9.77,1036.62,1.15,1.85,-1.83,26.70,-22.80,105.60,
3897776,-35.64,-4.39,1045.41,1.60,2.09,-0.17,24.30,-22.20,105.75,
3917780,-64.94,6.35,1019.04,-5.79,4.98,-0.08,24.15,-21.75,104.85,
3937789,-33.20,-26.86,1010.25,-2.81,3.57,-4.99,23.85,-21.30,105.90,
3957799,-61.04,-21.48,1006.35,-3.33,5.16,-2.23,24.75,-22.20,104.70,
3977805,-49.80,-15.62,1027.34,2.29,-3.82,-0.21,23.25,-21.90,104.40,
3997810,-31.25,-15.14,1033.69,0.27,-6.20,-1.42,24.75,-22.20,105.00,
4017816,-37.11,-10.25,1037.11,2.87,-6.50,-2.53,25.65,-22.35,104.85,
4037822,-44.43,-12.21,1044.92,-1.28,4.47,-0.15,25.80,-21.90,105.45,
4057828,-30.76,1.46,1049.32,-4.09,6.40,0.56,24.90,-22.35,106.65,
4077836,-57.62,-10.25,964.36,-8.64,1.48,0.76,25.05,-22.20,105.45,
4097845,-39.06,-15.14,967.29,-1.44,1.86,0.03,24.15,-21.75,105.60,
4117855,-46.39,-15.62,1040.53,-1.21,-5.27,-1.16,24.75,-22.20,105.75,
4137864,-38.09,-13.67,1058.59,0.40,-4.44,-3.42,24.75,-21.90,105.75,
4157873,-16.60,-9.77,1021.97,2.73,-4.43,-2.32,24.75,-21.45,105.00,
4177879,-37.60,13.18,1054.20,-1.62,4.03,-1.22,24.00,-21.15,106.05,
4197888,-9.77,-15.62,1020.51,-3.91,4.87,-1.25,25.65,-21.00,104.55,
4217897,-30.27,-12.70,1047.85,4.50,4.37,-1.98,24.45,-21.75,106.20,
4237903,-30.76,-18.07,1062.01,12.08,-2.34,-4.79,24.45,-22.80,105.90,
4257909,-24.41,-7.81,1052.73,4.00,-4.64,-4.27,22.65,-22.20,106.35,
4277914,-29.79,-28.81,1065.92,-4.99,0.00,1.76,24.00,-21.45,105.75,
4297918,-70.31,-9.77,1001.46,2.24,7.10,-0.90,24.30,-21.15,105.00,
4317924,-34.67,-5.86,1035.16,4.67,4.05,-3.16,24.15,-21.00,105.60,
4337933,-25.88,6.84,1052.73,0.69,3.05,-0.50,24.75,-20.70,106.05,
4357940,-21.48,-14.65,1034.18,-2.47,2.06,0.38,24.00,-22.65,104.70,
4377950,-22.95,18.55,1103.52,-3.27,-0.63,0.84,24.30,-21.90,105.45,
4397955,-34.18,8.79,1010.74,-3.95,6.00,-0.20,24.90,-21.30,105.60,
4417962,-36.62,3.42,1014.65,7.28,6.27,0.43,24.45,-22.05,106.20,
4437966,-24.90,16.60,1055.18,2.47,4.14,-3.65,24.15,-20.55,104.85,
4457976,-31.74,21.00,1083.98,-5.74,2.37,2.81,23.70,-22.20,106.35,
4477981,-32.71,-8.79,1030.27,-0.64,2.18,0.53,23.70,-21.15,106.35,
4497991,-59.57,31.74,1032.71,2.50,2.82,1.15,22.80,-22.05,104.85,
4517996,-49.80,-3.42,1005.86,4.78,-2.09,-3.71,24.00,-21.15,105.45,
4538004,-42.97,-7.32,1004.39,5.73,4.60,-2.11,24.90,-21.00,106.95,
4558012,-23.93,1.46,1017.58,2.58,7.04,-4.05,24.00,-21.15,106.80,
4578020,-22.95,3.91,1102.05,-2.92,3.36,-0.55,24.90,-22.05,105.60,
4598030,-31.25,-3.91,1060.06,-0.82,6.69,-0.89,24.30,-22.65,105.00,
4618041,-41.02,-26.37,1052.25,-4.82,4.60,1.36,24.15,-19.50,105.90,
4638051,-75.20,-42.48,1084.47,-5.25,4.69,0.18,24.45,-20.55,105.90,
5718469,139.65,35.64,-985.35,-5.56,-19.07,-5.37,4.65,3.00,18.15,
5738475,0.98,38.09,-947.27,10.21,-10.82,-2.08,3.75,6.15,18.30,
5758480,189.94,9.77,-982.91,32.38,39.86,9.77,3.30,4.20,18.15,
5778486,6.35,63.96,-823.24,23.42,45.92,5.33,4.95,3.90,19.35,
5798496,80.08,47.85,-804.69,3.95,23.25,-1.76,2.10,4.65,18.30,
5818504,96.68,5.37,-977.54,-10.81,8.61,-8.35,1.20,3.75,16.80,
5838514,212.89,-16.11,-995.12,-7.31,14.78,-2.40,0.75,4.20,18.15,
5858521,120.61,-44.92,-1021.48,-21.79,-8.15,-8.38,0.30,6.90,16.95,
5878529,237.30,-98.63,-1150.39,-18.84,-37.16,-9.95,-1.50,9.30,18.15,
5898539,189.94,-36.13,-1134.77,11.60,-26.70,2.81,-0.75,9.60,18.45,
5918546,79.59,9.28,-840.33,7.98,-9.42,-0.79,2.25,10.05,17.40,
5938551,161.13,-21.00,-979.49,-7.63,-21.04,-8.63,1.65,8.70,16.20,
5958557,104.49,-25.39,-1012.21,2.56,-16.15,-5.51,1.35,9.45,17.55,
5978564,111.82,-3.91,-874.51,-1.18,-16.67,-4.40,1.80,8.10,16.35,
5998572,94.24,-16.60,-971.19,-18.17,-31.65,-2.89,4.05,9.30,17.10,
6018578,76.66,21.97,-936.52,-0.89,-22.72,-5.40,2.70,9.00,16.95,
6038589,50.29,70.31,-962.89,-10.20,-32.20,-10.82,4.05,9.60,17.10,
6058596,45.41,24.41,-957.52,-10.58,-36.96,-14.61,3.75,12.00,15.60,
6078607,144.04,14.65,-1076.66,-6.49,-9.42,-0.81,5.10,12.90,16.35,
6098617,139.65,19.04,-1163.57,10.53,24.95,8.44,4.35,11.10,16.35,
6118629,27.83,31.74,-881.35,11.85,30.03,3.22,1.80,12.15,16.05,
6138636,143.55,5.37,-1052.73,13.40,18.32,5.02,2.55,11.40,16.05,
6158641,42.48,20.51,-1005.37,3.47,-1.42,4.78,3.15,12.00,15.60,
6178650,93.26,0.98,-1051.27,18.98,-11.39,-0.66,1.50,10.65,16.05,
6198657,-17.09,29.79,-871.09,1.42,-19.19,-5.68,2.40,9.75,16.65,
6218664,128.42,-21.00,-1077.64,-11.53,-26.93,-10.50,3.00,9.30,15.30,
6238670,118.16,-31.25,-1057.62,7.21,-13.39,1.08,5.25,10.95,16.65,
6258675,52.25,2.93,-977.05,16.63,0.63,2.03,2.25,9.60,16.05,
6278679,62.99,-8.30,-949.22,-10.29,-21.56,-1.56,4.50,9.45,16.20,
6298686,73.24,-38.09,-1042.97,13.30,-0.23,3.13,5.25,10.50,16.65,
6318696,33.69,2.44,-983.40,17.02,7.01,0.66,5.10,8.10,17.10,
6338707,46.39,25.88,-910.64,6.98,12.82,2.64,4.65,8.10,16.80,
6358715,31.25,6.35,-920.90,-2.75,-0.08,-5.19,3.45,8.70,16.65,
6378719,78.61,-9.77,-1019.53,-0.08,-1.82,-0.26,3.75,8.70,14.55,
6398726,46.39,19.04,-997.07,5.27,2.31,3.53,5.25,8.40,15.90,
6418737,61.52,-1.46,-965.33,4.05,1.98,0.08,1.65,9.00,15.60,
6438748,61.52,2.93,-1064.94,8.73,-1.11,-5.11,3.45,9.00,16.65,
6458755,55.66,17.09,-892.09,8.58,2.24,-0.43,4.35,8.10,15.30,
6478762,102.54,-50.29,-1086.91,-2.72,-4.89,2.31,3.30,8.55,16.80,
6498769,63.96,-53.22,-1063.96,8.20,-0.38,3.77,4.65,9.30,16.35,
6518780,21.00,-12.21,-960.45,15.48,-0.98,-0.49,3.60,8.55,16.80,
6538788,12.21,-23.44,-937.99,5.94,-7.82,-3.57,3.75,6.90,16.95,
6558797,53.71,-35.64,-933.11,5.66,-15.40,-4.15,4.20,9.45,16.65,
6578808,82.52,6.35,-1047.85,0.50,-4.95,-3.28,4.05,7.05,16.05,
6598817,44.92,-34.18,-968.26,2.58,-4.85,-3.71,5.25,7.20,15.90,
6618824,84.96,-33.20,-1081.54,6.06,13.31,1.33,4.95,7.20,16.65,
6638834,35.64,-50.78,-996.58,20.03,18.46,0.76,5.70,8.55,15.75,
6658841,5.86,-5.37,-972.66,16.17,7.85,-4.11,4.65,7.05,15.30,
6678847,92.29,-44.43,-960.94,-0.40,-1.08,-3.47,5.40,8.55,14.25,
6698857,77.64,-25.39,-1044.92,5.73,15.91,5.68,4.05,7.35,15.30,
6718867,91.80,-3.42,-973.63,-2.82,11.65,4.20,4.20,7.20,15.15,
6738877,75.20,-41.50,-1042.48,-4.92,-8.09,-2.63,4.35,6.30,15.00,
6758887,89.36,-35.64,-1059.57,-1.50,-3.47,0.24,3.45,7.20,16.20,
6778898,-10.74,-26.37,-962.89,-5.92,-17.25,-2.02,3.75,7.95,16.20,
6798903,95.21,-8.79,-1029.30,3.86,-7.05,-1.76,4.20,5.85,15.90,
6818912,42.48,-27.83,-970.70,1.60,9.21,-3.86,5.55,7.20,15.15,
6838919,78.12,-39.06,-919.43,4.60,11.86,-0.64,6.15,6.30,15.30,
6858926,59.57,-54.69,-979.49,-0.93,9.10,-3.34,5.40,6.75,16.05,
6878936,91.80,-64.45,-1029.30,-0.90,7.16,-0.70,4.05,6.75,16.05,
6898945,27.34,-41.02,-967.29,1.76,4.14,-0.58,5.10,5.55,16.80,
6918953,86.43,-41.50,-963.38,-2.60,-8.69,-6.23,5.25,6.45,16.20,
6938958,55.18,-60.06,-1029.79,-3.15,6.05,-0.50,4.95,6.45,16.65,
6958965,88.38,-44.43,-980.47,3.66,15.47,5.31,5.55,5.10,16.65,
6978976,62.99,-42.97,-1002.44,5.83,11.73,1.04,5.40,4.80,18.15,
6998982,90.82,-37.11,-985.35,3.11,-0.70,2.58,4.35,4.20,17.10,
7018993,54.69,-27.34,-942.38,-3.15,-6.63,-1.95,4.95,4.65,15.90,
7039003,64.94,-41.99,-978.52,-2.90,-9.15,-4.17,5.70,5.55,16.05,
7059013,97.17,-38.09,-993.65,-4.52,-10.37,-3.77,5.55,3.90,15.90,
7079020,116.21,-90.82,-935.55,-2.20,-12.73,-1.69,5.40,5.55,16.05,
7099031,35.64,-50.29,-1033.20,-4.75,-26.90,4.87,5.10,5.55,17.10,
7119039,13.67,-31.74,-994.14,3.85,-29.30,-4.03,6.15,4.50,15.30,
7139047,85.45,-16.60,-974.12,2.03,11.01,0.40,4.20,6.15,16.95,
7159058,37.60,-41.02,-978.52,-3.24,4.75,-1.79,5.55,4.35,14.85,
7179069,-14.16,-43.95,-963.87,-1.62,-3.44,-4.00,4.65,4.50,16.05,
7199077,68.36,-17.58,-947.27,4.40,5.42,-1.50,6.00,5.10,16.20,
7219083,22.46,-25.88,-928.71,-10.89,-7.36,0.06,7.35,3.90,15.90,
7239094,65.92,-24.90,-992.19,-7.15,-7.33,-0.50,7.05,3.60,16.20,
7259103,59.08,-45.90,-1138.18,-12.00,0.99,-4.64,6.15,5.55,17.10,
7279111,30.76,-37.60,-994.63,5.62,14.14,0.26,7.95,5.55,15.30,
7299116,54.69,-33.69,-1029.30,12.49,12.78,-0.55,5.40,4.80,16.80,
7319126,41.02,-48.34,-963.87,-5.05,0.75,-1.65,6.90,5.55,15.30,
7339131,49.80,-16.60,-917.48,0.17,0.06,-1.27,4.50,4.65,15.90,
7359140,84.47,-50.29,-1082.03,1.42,0.06,-3.08,4.95,4.35,16.95,
7379149,1.95,-37.11,-883.79,-3.25,0.58,-0.47,7.05,4.65,16.65,
7399156,69.34,-19.53,-968.26,-5.22,-7.22,-1.07,6.30,5.10,16.20,
7419163,36.62,-34.67,-994.63,-10.34,-7.74,-0.18,5.40,6.30,17.85,
7439168,82.03,-54.20,-1020.51,8.34,17.53,0.84,6.00,6.45,15.15,
7459174,39.55,-22.95,-1000.98,-2.61,8.43,-2.00,6.90,5.25,15.75,
7479183,62.01,-15.62,-991.21,-0.18,-0.47,-1.01,6.30,5.40,17.25,
7499188,69.34,-46.88,-1076.66,4.32,-4.20,-2.60,6.15,4.80,17.10,
7519195,-9.28,-13.18,-958.98,6.70,2.99,-1.40,5.25,6.15,16.65,
7539202,54.69,-20.51,-946.78,-3.62,-1.39,-5.04,5.55,4.65,15.15,
7559206,58.59,-62.01,-983.40,-8.32,-2.31,-1.22,6.15,3.45,15.00,
7579216,57.62,-50.29,-1018.55,0.44,-5.10,-0.67,5.55,4.65,15.90,
7599225,86.43,-70.80,-999.02,-3.37,-25.27,0.05,6.90,5.55,17.10,
7619229,-19.04,-31.25,-1037.11,-10.56,-38.99,1.82,6.60,5.10,16.20,
7639238,-31.74,-8.79,-979.49,-1.88,-28.72,-5.04,6.90,4.80,16.80,
7659247,56.64,-3.91,-1006.84,-1.44,-14.02,-3.80,7.50,6.30,15.30,
7679253,-108.89,-6.35,-1019.04,-0.40,-6.60,-12.35,7.35,4.35,16.95,
7699260,75.68,-25.39,-945.80,1.37,2.06,-1.25,8.70,3.90,15.90,
7719265,-41.50,11.72,-947.27,8.55,6.55,-1.94,8.40,5.40,16.20,
7739272,-7.32,-42.97,-939.45,-11.34,-5.01,-6.69,9.60,3.45,18.45,
7759280,30.27,-40.53,-1099.61,-1.68,12.75,0.43,8.55,5.55,17.10,
7779288,-19.04,-44.43,-975.10,3.34,16.35,-4.12,8.55,4.20,16.35,
7799297,13.18,-42.48,-976.56,-2.85,10.60,-0.03,7.95,5.25,17.10,
7819306,50.78,-26.86,-1006.35,5.36,9.11,-3.77,7.35,4.65,16.65,
7839316,1.46,-48.34,-1005.37,0.27,14.41,1.91,9.15,5.40,17.25,
7859326,-8.79,-20.51,-953.12,-0.55,8.06,-1.56,8.10,5.85,15.90,
7879337,20.51,-47.36,-983.40,6.95,2.53,-2.81,6.30,4.35,17.25,
7899341,-11.23,-41.50,-984.86,-8.90,1.69,-4.79,7.35,6.15,15.15,
7919351,30.27,-44.43,-946.78,-8.96,2.43,-0.53,7.50,3.75,16.35,
7939357,44.43,-56.15,-1075.68,-1.92,3.66,-5.66,6.45,3.45,17.40,
7959364,10.74,-41.02,-978.03,-0.20,7.15,-1.07,6.90,4.50,16.80,
7979374,3.91,-22.46,-942.38,-8.64,-5.82,-1.69,6.45,3.75,16.05,
7999379,9.28,-29.79,-1031.25,-8.17,-0.81,0.00,7.20,4.50,15.30,
8019387,66.89,-20.51,-1050.29,-5.76,-2.92,-2.53,7.50,4.80,16.05,
8039395,-8.30,-0.98,-1012.70,2.60,-6.95,-1.18,7.35,5.85,17.55,
8059403,11.23,-16.11,-924.80,5.97,-6.61,-4.69,8.25,6.00,17.10,
8079413,37.60,-16.11,-1014.16,-1.80,-10.15,-8.11,7.50,5.55,16.35,
8099417,-28.81,-22.95,-986.33,3.05,2.52,-3.34,8.10,5.10,15.60,
8119422,48.34,-32.71,-984.38,0.82,6.73,-0.17,8.10,6.45,15.90,
8139433,-13.67,-20.51,-990.72,6.41,9.60,-1.31,9.30,6.75,18.15,
8159438,1.46,-29.30,-896.00,-0.24,8.53,-4.85,8.70,4.35,15.90,
8179446,59.57,-60.06,-1017.09,-0.67,-1.05,-10.17,8.10,5.85,16.65,
8199452,7.32,-15.14,-1022.46,-14.81,-10.73,4.21,6.60,6.45,16.65,
8219461,40.53,-17.58,-1021.00,0.81,-2.96,3.95,8.40,6.45,15.90,
8239465,-33.69,-31.74,-1050.29,-1.04,-2.73,-1.21,7.20,6.75,16.05,
8259471,21.00,-22.46,-987.79,2.99,-1.97,-4.95,7.05,5.40,16.65,
8279478,18.07,-20.51,-953.61,6.63,0.40,-4.63,8.70,4.65,16.95,
8299483,15.14,-25.39,-968.26,-2.18,1.25,-0.26,7.20,5.25,16.80,
8319489,-21.97,0.49,-939.94,-6.55,4.81,-0.70,7.50,6.00,16.35,
8339497,25.88,-45.90,-982.91,-6.49,9.60,-1.45,7.20,6.00,16.35,
8359503,24.90,-56.15,-1060.55,-4.03,7.37,-2.00,7.50,5.55,17.40,
8379510,1.46,-45.41,-1031.74,2.32,11.21,0.46,7.65,7.20,17.25,
8399518,20.02,-41.02,-1013.67,0.56,6.06,-0.09,7.50,4.80,16.80,
8419524,15.14,0.00,-964.36,5.19,2.84,-0.76,6.60,6.45,16.20,
8439531,-11.23,-38.09,-1015.62,-12.58,-6.44,-0.41,6.60,5.85,15.60,
8459541,36.13,-47.85,-979.49,0.70,1.19,-2.20,7.20,6.00,15.00,
8479550,-2.93,-11.72,-933.59,1.57,-1.76,-7.56,7.05,5.85,15.90,
8499559,15.62,-30.76,-1040.53,-2.12,7.95,-2.02,8.10,6.15,15.90,
8519567,22.46,-40.04,-956.05,5.30,10.38,-4.26,7.35,5.40,17.25,
8539571,15.14,-51.27,-1045.90,4.09,4.58,-3.47,6.30,6.45,15.90,
8559577,47.85,-34.67,-998.05,7.36,-0.50,-2.34,6.90,6.30,16.05,
8579584,-24.41,-22.46,-1004.39,-2.49,2.11,-1.22,7.05,5.40,15.15,
8599591,37.11,-40.04,-953.12,-4.78,-3.34,3.86,7.50,5.25,16.05,
8619600,-2.93,-44.43,-987.30,1.59,6.24,-2.47,7.65,5.85,16.95,
8639611,7.81,-26.37,-976.56,-0.20,4.96,3.27,6.30,6.90,15.90,
8659619,64.94,-9.77,-1005.86,4.44,14.70,2.90,8.25,6.30,15.30,
8679626,15.14,-15.14,-983.40,-1.54,7.79,4.72,7.20,4.50,15.00,
8699634,30.76,-33.20,-975.10,-7.50,-0.34,-0.20,5.25,6.15,14.85,
8719641,41.99,-56.15,-1004.88,0.41,-12.37,-2.55,7.50,6.75,16.35,
8739648,50.29,-57.13,-1067.38,-0.43,-9.25,-4.66,6.60,6.15,16.95,
8759657,12.70,-35.16,-967.77,2.96,-1.25,-3.36,5.55,7.65,15.90,
8779663,50.78,-28.81,-1044.43,6.17,7.33,4.23,5.10,7.35,16.35,
8799671,31.25,-32.23,-1001.95,2.61,7.05,2.96,5.55,6.90,14.85,
8819678,1.95,-43.95,-979.98,1.86,2.66,2.06,6.15,5.55,16.80,
8839690,15.14,-21.48,-968.26,2.63,5.88,2.58,5.25,5.40,15.90,
8859701,39.06,-44.92,-1023.93,4.44,1.80,-0.02,5.70,5.55,16.80,
8879710,25.39,-25.39,-982.42,5.66,1.65,2.05,5.40,6.30,16.05,
8899720,47.36,-68.36,-1018.07,5.91,6.75,2.84,6.90,3.45,16.35,
8919729,27.34,-61.04,-1000.00,10.15,8.41,6.26,5.40,6.00,15.75,
8939735,65.43,-14.65,-935.06,4.18,11.56,6.53,5.55,3.60,16.95,
8959739,33.20,-48.83,-1023.93,-1.80,4.06,-1.65,6.15,4.80,16.35,
8979744,0.98,-43.95,-950.68,3.92,6.78,-0.26,5.25,4.65,14.85,
8999752,86.43,-12.70,-931.15,-4.58,7.07,1.89,6.00,7.20,16.20,
9019758,52.73,-54.69,-1077.15,3.02,13.24,4.70,5.70,4.50,15.75,
9039765,42.97,-57.62,-957.52,-1.97,5.16,6.15,4.65,3.45,15.00,
9059772,84.47,-52.73,-1058.11,1.05,-0.37,4.11,5.55,3.90,16.95,
9079779,35.16,-41.50,-979.00,1.45,-4.84,2.70,5.55,4.35,15.60,
9099783,67.87,-25.39,-941.41,-3.98,-3.69,0.24,6.15,3.75,17.10,
9119792,65.43,-52.25,-977.05,-4.15,0.67,3.31,6.30,3.90,15.90,
9139797,80.08,-55.66,-1050.29,-5.28,1.44,8.75,4.65,5.55,15.75,
9159806,33.20,-28.81,-955.08,1.08,0.50,1.56,4.65,4.80,15.75,
9179817,15.62,-5.86,-949.22,2.79,-11.51,-2.90,6.15,5.25,16.05,
9199823,42.48,-35.16,-970.70,-5.19,-16.11,-2.63,5.55,4.65,17.25,
9219833,37.11,-25.39,-1061.04,-4.14,-5.56,3.89,4.95,4.65,16.20,
9239844,46.88,-35.64,-1019.04,6.76,7.68,3.02,7.35,4.65,15.90,
9259849,38.09,-37.60,-970.70,0.69,5.53,-0.09,5.55,4.35,17.25,
9279857,42.97,-51.27,-1016.11,7.19,6.12,-1.57,5.40,5.25,15.75,
9299863,64.45,-34.18,-925.29,6.29,4.15,4.41,5.25,3.90,15.90,
9319870,30.76,-49.32,-1002.44,-1.73,-2.24,0.95,4.65,5.55,16.35,
9339876,83.01,-44.43,-1005.86,4.52,0.53,4.95,4.95,3.15,14.55,
9359883,23.93,-41.02,-999.51,-3.48,-0.17,4.52,5.40,5.55,17.10,
9379893,50.29,-36.13,-987.30,3.25,-2.93,3.37,6.30,4.65,15.60,
9399903,78.12,-27.83,-1024.41,1.01,8.81,4.35,6.90,4.20,15.30,
9419911,40.53,-32.23,-982.91,7.39,6.15,3.04,5.70,3.45,16.80,
9439918,24.41,-41.02,-951.66,4.40,1.57,-1.51,5.10,4.80,17.10,
9459922,67.38,-64.94,-995.61,2.27,1.89,1.22,5.55,3.90,17.55,
9479931,22.95,-28.81,-927.73,3.71,-2.24,2.56,4.65,4.20,15.30,
9499942,71.29,-55.66,-1027.34,-6.29,-11.80,-0.14,4.65,4.80,15.75,
9519948,41.02,-27.83,-925.78,-1.56,-12.46,1.53,6.00,2.85,14.55,
9539958,39.55,-30.76,-1060.06,-11.07,-22.17,0.70,4.95,4.35,16.65,
9559964,55.18,-57.62,-1035.16,1.77,-15.77,-0.47,5.55,5.10,15.90,
9579971,39.06,-23.93,-1003.42,-1.97,-7.66,-2.15,7.05,4.65,15.90,
9599976,41.99,-15.62,-982.42,0.73,3.63,2.18,5.70,4.80,17.10,
9619985,55.18,-16.60,-990.23,-0.87,0.69,3.08,5.55,4.35,15.15,
9639995,19.04,-35.64,-996.58,3.66,3.05,-0.46,6.00,3.60,16.20,
9660003,30.76,-45.41,-1003.91,0.18,-0.63,3.45,4.65,3.75,17.85,
9680009,51.76,-33.69,-990.72,4.70,0.02,1.22,5.70,5.55,16.35,
9700013,37.11,-50.78,-988.77,3.08,-3.25,0.12,5.70,3.75,16.05,
9720019,31.25,-41.02,-987.79,4.52,3.65,-0.11,6.30,4.35,16.65,
9740024,46.88,-36.13,-974.12,-0.02,0.95,0.84,5.70,5.25,16.80,
9760032,44.92,-36.13,-982.91,-4.12,4.90,3.50,5.70,5.25,16.80,
9780038,57.62,-45.90,-999.02,4.55,2.56,0.73,6.15,3.45,15.30,
9800042,56.15,-25.88,-985.35,-1.83,4.23,2.99,6.30,4.35,18.00,
9820051,51.76,-46.39,-1007.81,3.60,4.61,-0.03,4.05,4.20,15.30,
9840061,21.97,-58.11,-953.61,-0.14,2.35,-1.91,5.10,4.80,16.35,
9860066,75.20,-53.71,-1009.28,3.88,1.63,1.83,4.35,4.80,16.35,
9880071,44.92,-42.48,-938.48,5.36,-0.69,-2.31,5.40,3.75,16.80,
9900075,57.13,-41.50,-1050.78,1.07,-5.36,0.18,5.40,4.50,16.80,
9920087,28.32,-33.69,-954.10,3.27,3.47,4.81,6.15,4.20,15.75,
9940094,44.92,-33.20,-996.09,-0.75,4.27,0.81,5.55,4.65,17.55,
9960099,56.64,-37.60,-1011.72,4.34,5.21,-0.12,5.55,4.35,15.90,
9980107,46.88,-32.23,-946.29,4.06,1.05,0.70,4.95,4.35,15.90,
10000115,50.29,-41.02,-972.66,-1.97,-6.09,-0.72,5.25,3.90,15.90,
10020121,86.43,-55.18,-995.12,-0.32,-1.45,1.59,3.30,3.45,15.75,
10040131,28.81,-33.69,-985.84,0.20,-1.47,1.68,4.20,4.65,14.55,
10060138,59.08,-47.85,-996.58,-0.58,-1.89,1.37,6.00,2.85,15.15,
10080143,26.37,-23.93,-977.05,2.64,0.66,-0.32,5.10,5.25,17.10,
10100154,53.22,-37.60,-989.75,1.25,2.23,0.61,5.10,4.50,16.80,
10120160,55.66,-29.79,-975.10,1.18,-0.79,1.82,5.25,5.10,15.60,
10140165,85.45,-20.51,-992.19,-1.34,1.13,0.29,4.95,4.35,16.95,
10160174,65.43,-48.34,-998.05,0.84,-2.81,-0.17,4.20,5.10,16.20,
10180181,57.62,-54.69,-1015.62,2.63,-5.57,-0.64,4.50,5.10,17.25,
10200187,32.71,-53.22,-979.00,0.06,-3.79,-2.75,4.35,3.75,17.40,
10220197,49.80,-48.83,-979.00,3.65,0.35,-0.26,4.20,5.10,14.55,
10240206,41.99,-34.18,-954.10,-1.10,-1.31,-1.47,5.55,4.65,16.65,
10260217,29.79,-38.09,-1002.93,-4.32,-6.70,-0.82,5.10,6.30,17.10,
10280222,74.71,-18.55,-1029.79,-3.69,-4.40,0.92,4.65,4.80,15.75,
10300228,50.78,-33.69,-997.56,1.24,5.74,3.95,4.20,5.40,14.85,
10320239,50.78,-32.23,-974.12,2.18,1.04,-1.10,5.10,5.25,16.35,
10340246,49.32,-47.85,-1014.65,3.79,-2.09,2.40,4.65,5.55,16.35,
10360251,41.02,-25.88,-983.89,4.81,-5.19,0.46,5.25,5.40,16.95,
10380260,67.38,-25.39,-931.64,-1.51,-3.25,3.28,5.25,4.65,15.15,