micros,aX,aY,aZ,gX,gY,gZ,mX,mY,mZ,
1216772,-1001.46,-14.16,-41.02,2.03,1.36,1.68,33.90,-8.40,102.30,
1236778,-1003.91,-9.77,-34.67,2.89,3.50,-3.57,33.00,-8.10,101.70,
1256783,-1005.37,-5.37,-43.95,0.52,-1.62,-2.38,33.60,-7.20,103.35,
1276789,-1007.32,-25.39,-26.86,-1.19,-8.17,1.51,32.55,-7.20,101.55,
1296796,-1012.21,0.49,-22.46,0.66,-4.09,-3.89,32.25,-8.55,102.75,
1316801,-1013.18,-6.84,-14.16,-4.76,-0.29,-3.86,31.95,-7.35,101.70,
1336808,-1002.93,-22.46,-22.95,-0.66,6.06,-1.83,35.25,-8.40,102.90,
1356813,-1006.35,-19.04,-21.00,-2.96,3.40,-3.63,32.85,-6.45,101.55,
1376822,-1012.21,-16.11,-32.23,-6.99,5.27,-2.67,33.30,-8.55,101.70,
1396830,-1005.37,-18.55,-16.60,1.42,-4.90,0.17,33.75,-7.80,102.75,
1416836,-1011.23,-12.21,-13.18,-0.32,0.47,-1.45,31.95,-8.55,102.45,
1436845,-1010.25,-10.74,-14.65,-3.69,1.02,2.24,33.60,-7.95,101.55,
1456850,-1003.42,-8.79,-27.83,-2.99,-0.15,-2.82,33.30,-8.55,102.45,
1476854,-1009.28,-16.60,-24.41,0.73,1.80,-3.94,33.30,-8.10,102.15,
1496859,-1008.30,-8.79,-22.46,0.18,1.45,-3.86,32.70,-7.80,103.05,
1516864,-1002.93,-5.37,-31.74,-0.85,-1.95,-0.52,33.60,-8.70,101.85,
1536871,-998.05,-4.39,-21.48,-1.42,0.09,-1.76,33.60,-7.95,102.60,
1556881,-995.12,-21.48,-25.39,-4.14,2.64,-1.30,33.15,-8.70,102.60,
1576889,-993.65,-9.77,-23.93,0.40,4.09,-1.91,32.55,-8.40,102.30,
1596896,-987.79,7.32,-15.14,-1.88,2.21,-0.15,33.00,-7.05,101.70,
1616902,-1005.86,-2.44,-22.95,-0.26,3.98,-6.23,32.70,-8.85,102.75,
1636911,-1011.23,-2.44,-12.70,2.73,6.75,-1.08,33.15,-7.95,102.30,
1656917,-1000.00,-17.58,-26.37,-2.46,3.92,-0.24,33.60,-8.40,101.55,
1676927,-1018.07,-21.48,-30.27,-4.50,1.39,-2.96,33.00,-7.80,102.45,
1696936,-1002.93,-21.48,-37.60,-2.20,-1.47,0.18,33.60,-8.40,102.30,
1716944,-1010.25,-17.58,-21.48,-0.40,4.90,-0.11,34.20,-6.90,102.30,
1736951,-1000.00,-15.62,-38.09,0.53,8.03,-0.82,33.90,-8.70,101.25,
1756961,-1004.88,-4.88,-16.11,-1.94,-2.38,0.23,32.85,-7.20,102.60,
1776966,-1008.79,-8.79,-30.27,-1.54,1.62,-2.37,32.85,-7.20,101.25,
1796971,-1010.25,-15.62,-23.44,-1.40,0.38,-4.29,32.25,-8.55,103.50,
1816980,-997.07,-7.81,-18.07,-2.11,-4.37,-0.67,32.85,-7.95,100.50,
1836984,-1007.32,-20.02,-21.97,-0.09,-5.25,2.06,32.10,-7.20,102.90,
1856989,-995.61,-25.39,-34.18,-0.06,-0.23,1.05,32.85,-7.95,102.60,
1876997,-1001.95,-4.39,-20.02,2.70,-1.57,0.61,33.30,-7.80,103.50,
1897002,-1005.86,-8.79,-34.18,-0.58,-4.23,2.99,32.85,-8.40,101.55,
1917008,-996.58,-9.77,-30.27,-2.76,0.49,1.50,33.90,-8.40,102.30,
1937018,-1007.32,-7.81,-27.83,1.11,0.55,-2.56,32.70,-8.85,103.05,
1957028,-1004.88,0.00,-26.37,2.67,0.38,-0.38,33.90,-9.45,102.30,
1977034,-1006.35,-0.98,-14.65,0.96,-0.55,0.23,32.10,-8.40,103.35,
1997043,-1007.32,-7.81,-6.84,-0.63,-3.57,-0.49,33.60,-7.20,101.85,
2017049,-1012.21,-3.91,-29.79,1.66,-9.85,-1.37,32.25,-9.60,102.75,
2037057,-1002.44,-8.30,-15.14,0.58,-6.61,3.73,33.30,-6.75,102.45,
2057062,-996.09,-21.48,-19.04,1.62,-2.72,-4.14,32.25,-6.75,102.45,
2077067,-1013.18,6.84,-23.93,0.72,-3.01,3.33,32.10,-7.95,102.60,
2097072,-1001.46,-20.51,-17.58,-0.44,-3.59,3.21,33.30,-8.55,103.05,
2117082,-998.05,-10.74,-20.51,2.41,-2.78,-0.34,32.10,-8.40,101.55,
2137093,-1003.91,-6.35,-18.55,0.72,-2.26,1.76,32.85,-8.70,102.30,
2157098,-1008.79,-9.77,-19.04,0.41,-1.63,-1.08,33.00,-7.80,101.40,
2177103,-999.02,-2.44,-16.60,2.55,-2.23,-1.39,33.30,-6.75,102.45,
2197111,-1011.23,-8.79,-11.72,-0.79,-0.02,0.61,33.15,-6.90,102.90,
2217118,-1009.28,-1.95,0.00,0.76,-0.27,1.91,33.30,-8.85,102.45,
2237129,-1005.37,-2.44,-27.83,5.16,2.84,1.57,33.90,-7.95,101.55,
2257134,-1018.07,-12.21,-14.16,3.65,0.11,3.76,33.00,-9.30,101.40,
2277140,-1008.30,-7.81,-19.04,-0.78,-0.23,0.79,33.60,-7.95,101.25,
2297146,-1011.23,-11.23,-19.53,1.94,-2.18,-0.15,33.15,-9.00,101.85,
2317155,-1012.70,0.00,-23.44,-0.72,-0.76,-2.64,32.70,-8.10,103.50,
2337159,-1004.39,-10.74,-29.30,0.31,-2.21,-0.23,33.75,-7.05,102.45,
2357170,-1002.44,0.98,-22.46,2.90,7.42,-1.57,32.55,-8.70,101.85,
2377178,-1002.93,-8.30,-16.11,0.61,4.43,-1.21,32.85,-8.40,102.30,
2397185,-1000.00,-1.46,-11.72,3.36,2.31,1.28,32.10,-7.65,102.60,
2417191,-1005.86,-6.35,-21.97,1.18,3.37,-2.47,33.75,-8.85,101.40,
2437201,-1000.98,-1.95,-34.67,-0.20,0.24,1.22,33.75,-8.10,103.05,
2457208,-1009.28,-4.39,-24.90,-0.73,-5.01,-4.58,34.05,-7.05,102.45,
2477213,-993.16,-7.32,-23.93,0.75,-3.60,1.37,32.70,-8.55,102.15,
2497222,-1013.18,-0.49,-20.02,2.63,-4.85,2.34,34.05,-8.55,103.05,
2517230,-1010.74,-15.14,-21.00,-0.23,-0.44,3.01,33.30,-8.10,102.45,
2537239,-1005.86,-9.28,-9.77,1.71,-3.94,0.61,33.30,-8.85,101.40,
2557246,-1008.79,-15.14,-26.37,-0.44,-6.79,-0.26,32.55,-7.65,102.90,
2577254,-1007.81,-5.37,-28.32,-1.88,-7.42,1.71,33.75,-7.80,102.15,
2597260,-1004.39,-7.81,-5.86,2.52,-5.04,0.08,33.60,-9.45,102.90,
2617268,-1006.35,-6.84,5.37,0.93,2.75,1.95,32.25,-8.55,102.75,
2637279,-1000.00,-10.25,-11.23,2.81,-3.18,2.55,32.85,-7.65,102.60,
2657289,-1012.70,-4.39,-11.72,-0.47,-3.42,1.24,32.10,-7.65,102.30,
2677295,-1009.77,-5.37,-17.58,1.48,-2.09,-2.09,33.60,-7.65,101.85,
2697300,-1006.84,-13.67,-12.21,0.84,-3.40,0.15,32.25,-7.80,103.50,
2717311,-1012.21,-17.58,-0.49,2.35,-5.44,-1.30,32.55,-7.65,103.35,
2737318,-1001.46,-14.65,-6.35,-1.02,-3.39,1.62,33.90,-7.65,102.30,
2757323,-1007.32,-0.98,-18.55,-0.53,-1.18,3.44,32.55,-8.70,102.60,
2777332,-1001.95,-11.72,0.49,-0.14,0.61,0.61,33.75,-6.75,102.75,
2797338,-994.14,-2.44,-13.67,2.47,2.21,2.21,31.65,-7.80,101.70,
2817345,-1002.93,7.81,-11.23,0.32,7.21,0.66,33.15,-9.45,102.90,
2837351,-1002.44,-7.81,-17.58,-0.24,4.21,-0.78,33.30,-9.30,101.70,
2857358,-1001.46,-11.23,-3.42,-1.37,-0.21,-3.02,33.30,-7.80,102.15,
2877365,-1001.95,-8.30,-16.60,-3.34,2.67,-1.16,33.00,-7.80,103.05,
2897370,-1000.00,-3.42,-19.53,1.51,3.62,-1.88,32.70,-8.55,104.10,
2917379,-1011.23,-3.42,-15.62,0.60,7.37,-24.05,33.00,-8.10,102.15,
2937385,-1001.46,-2.93,-11.23,-1.56,3.45,-3.63,32.70,-7.35,102.75,
2957390,-1002.44,-10.25,-8.79,0.69,1.91,-3.19,33.30,-6.75,102.15,
2977396,-1012.70,-1.95,-8.30,-0.69,3.54,-4.09,31.05,-8.40,102.30,
2997407,-996.58,-10.74,-16.60,-1.08,3.77,-2.72,33.60,-7.65,102.30,
3017417,-1004.39,-13.67,-6.84,-3.83,2.89,-0.17,31.65,-7.35,102.45,
3037427,-1007.81,-12.70,-19.53,-1.83,-0.60,-3.50,32.70,-8.55,102.15,
3057435,-1008.30,-13.18,-12.70,-2.18,-2.66,-0.87,33.15,-9.45,101.55,
3077445,-1005.86,-10.74,-8.30,-0.95,0.93,-2.06,32.85,-7.65,102.30,
3097455,-1006.84,-15.62,-16.11,-1.54,3.51,-0.82,33.90,-7.20,103.65,
3117461,-991.70,-13.67,-15.62,1.62,0.90,16.38,33.30,-8.10,102.15,
3137467,-1004.88,-14.65,-23.93,-4.09,6.72,-1.79,32.70,-8.10,102.15,
3157474,-1000.00,-18.07,-7.32,-3.27,2.24,-2.84,33.15,-7.35,101.70,
3177478,-1010.25,0.98,-10.25,-1.86,3.44,0.60,34.05,-7.80,102.75,
3197487,-1008.30,-24.41,-1.95,-1.60,-0.96,-5.24,32.70,-7.05,102.15,
3217495,-1013.67,-13.67,-19.04,-3.68,4.00,-1.48,32.70,-7.80,102.45,
3237500,-999.51,-8.30,-9.28,-3.92,-0.40,-1.45,31.95,-8.85,101.70,
3257510,-1025.39,-9.28,-13.67,-0.26,2.46,-0.66,33.00,-8.55,102.15,
3277517,-996.58,-12.70,-10.74,-1.71,3.05,-1.53,33.60,-8.70,101.85,
3297522,-1007.81,-2.93,-12.21,-4.09,-0.98,-2.09,31.05,-8.40,103.35,
3317529,-1010.74,3.91,-16.60,-0.44,1.59,1.19,31.65,-8.55,101.70,
3337534,-1020.02,-1.46,-5.37,-2.82,2.75,-2.12,32.10,-7.95,103.65,
3357541,-1011.72,-4.39,-5.86,-0.23,1.48,-0.76,33.00,-8.55,102.45,
3377549,-1010.25,0.98,-17.58,-2.60,0.82,-3.91,31.35,-7.20,101.85,
3397558,-997.07,-9.28,-7.81,-1.53,-0.03,-0.98,32.85,-7.95,101.55,
3417567,-1010.25,-14.65,-9.28,-4.61,0.64,-2.53,33.00,-9.60,103.05,
3437572,-1007.32,6.35,-9.28,-0.87,1.83,-1.04,33.75,-7.05,102.15,
3457583,-1004.39,-1.46,-5.37,-1.18,2.31,-2.47,32.10,-8.40,102.90,
3477592,-998.05,-13.18,-24.90,2.31,-0.03,-0.96,33.15,-8.40,102.60,
3497600,-992.68,-3.91,-11.23,1.71,4.84,-0.63,33.75,-8.55,101.40,
3517609,-1012.70,-12.21,-13.67,-2.05,4.17,-2.43,33.90,-9.00,101.55,
3537615,-1009.77,-2.93,-5.86,-0.34,0.67,-0.92,33.15,-7.95,102.60,
3557626,-1004.39,-10.25,-2.93,0.11,1.30,-3.69,33.00,-8.55,101.70,
3577636,-1008.79,-22.95,-4.39,0.52,5.53,-1.36,32.25,-8.55,102.75,
3597646,-1018.07,-0.98,-25.39,-0.05,6.08,-2.34,33.75,-7.80,102.75,
3617650,-1012.70,-11.72,-14.65,-0.79,9.63,0.69,33.15,-8.70,102.90,
3637657,-1011.72,-22.95,-22.46,-2.18,-1.42,-1.86,32.70,-7.80,102.75,
3657664,-999.02,-6.35,-11.72,-8.93,-1.45,2.75,32.70,-7.80,103.80,
3677675,-999.02,-14.65,-2.44,-5.15,14.61,-2.70,32.70,-9.30,103.80,
3697682,-1003.91,-5.37,-23.44,4.40,36.55,4.15,31.35,-9.00,102.60,
4498005,973.63,60.06,100.10,-43.01,-19.57,13.77,-31.05,2.10,63.00,
4518009,971.68,49.32,9.28,-17.86,-27.74,12.53,-31.05,1.80,61.95,
4538016,1031.74,66.89,72.75,-10.44,-4.50,7.22,-31.05,1.35,61.95,
4558025,999.51,40.04,124.51,-1.30,9.11,9.57,-31.20,1.50,62.55,
4578034,944.82,25.88,187.99,-2.92,-5.80,7.80,-31.95,0.45,61.20,
4598045,980.96,58.11,146.97,1.80,39.30,10.05,-31.80,1.35,62.40,
4618055,920.41,19.53,200.20,-7.07,30.64,-1.44,-31.35,1.80,62.40,
4638060,997.56,22.46,166.50,-2.60,3.40,-3.10,-32.25,0.45,62.25,
4658067,1079.10,52.25,138.67,3.15,-14.61,-3.02,-31.80,0.60,63.00,
4678077,972.17,42.48,133.30,0.31,-18.99,2.79,-31.05,1.35,61.05,
4698089,961.43,71.78,101.07,10.47,-20.85,3.76,-31.80,1.05,61.35,
4718096,1061.52,64.94,-27.83,17.13,14.40,20.76,-31.95,0.90,60.45,
4738107,912.60,2.44,-20.02,26.18,10.17,22.81,-32.10,0.60,61.35,
4758118,960.45,90.82,493.65,13.40,10.21,17.91,-31.20,1.20,62.25,
4778128,966.80,63.48,502.44,21.36,-16.21,18.79,-30.90,0.15,60.45,
4818142,897.95,0.98,108.40,28.08,-11.13,16.75,-30.30,1.05,60.60,
4838153,991.21,27.83,113.77,20.56,-9.92,13.80,-30.60,-1.20,60.15,
4858157,998.05,14.16,82.03,12.84,5.76,8.52,-30.75,-0.30,60.00,
4878167,987.79,1.95,133.79,5.30,-2.79,8.64,-32.10,-0.60,60.60,
4898173,987.30,-14.65,136.72,-3.56,-21.57,4.00,-29.70,-2.10,60.30,
4918184,1038.57,23.44,-49.32,20.64,-24.81,4.18,-30.90,-0.45,59.10,
4938189,1003.91,-10.25,96.19,10.15,-6.84,1.94,-30.75,-1.35,58.95,
4958195,987.79,-6.84,41.99,-3.02,-22.24,0.96,-31.20,-1.50,59.10,
4978199,1067.87,-15.62,-441.89,6.67,-34.31,4.31,-31.95,-0.45,59.70,
4998210,906.74,-148.44,-325.20,46.63,1.02,-1.66,-31.20,-1.20,58.35,
5018217,985.35,-46.88,108.89,7.07,-19.13,-16.23,-33.15,-2.10,57.45,
5038229,1003.91,4.88,35.16,5.79,-22.05,-19.44,-31.35,-1.35,59.25,
5058240,1007.81,13.18,-4.88,13.15,0.43,-20.26,-31.05,-1.35,57.90,
5078245,987.79,18.07,66.41,19.79,21.13,-9.04,-30.75,-1.05,57.90,
5098249,990.72,25.39,60.06,8.85,18.24,-3.18,-30.00,-1.35,58.20,
5118259,974.12,28.32,114.26,12.93,18.89,1.04,-30.30,-0.60,58.95,
5138268,980.47,18.07,52.73,-0.44,2.15,-0.17,-31.20,-1.50,58.65,
5158277,990.72,-16.11,52.25,-0.55,-0.52,-2.52,-30.60,-1.50,57.75,
5178286,988.77,2.93,122.56,7.86,10.87,-4.75,-30.90,-0.90,58.65,
5198293,998.05,19.04,46.39,8.89,12.63,-3.40,-30.60,-0.45,59.10,
5218301,987.30,-3.91,133.79,0.21,-6.63,-6.08,-30.75,-0.30,57.90,
5238306,984.86,18.07,117.19,-5.79,-12.58,-8.20,-30.90,-1.50,57.75,
5258316,1000.98,33.20,14.65,-1.47,-0.05,-3.71,-31.05,-1.05,58.95,
5278326,987.30,26.37,107.91,-0.90,-5.59,1.44,-30.90,-1.50,58.65,
5298337,1002.44,7.32,47.85,-2.64,-4.64,0.99,-30.60,-1.50,58.05,
5318345,998.05,7.32,45.90,-6.29,3.60,-2.53,-30.75,-2.55,58.20,
5338350,990.72,-12.21,72.75,-7.98,-4.64,-2.56,-31.80,-2.10,58.20,
5358359,1002.44,3.91,58.59,-3.21,2.66,-2.49,-30.00,-1.80,57.45,
5378363,999.02,4.39,57.13,1.59,8.17,-4.15,-31.35,-0.60,57.90,
5398368,992.68,6.35,79.59,0.63,6.89,-3.59,-30.30,-2.10,57.15,
5418377,986.33,9.28,67.38,0.85,4.55,-2.81,-30.60,-1.20,58.35,
5438383,996.09,11.72,86.43,-2.24,2.85,-3.63,-30.30,-1.05,57.45,
5458394,993.65,30.76,66.89,-3.44,-3.66,2.31,-30.15,-1.50,58.05,
5478400,1004.88,-0.98,63.48,-3.08,-3.13,-0.95,-29.25,-2.10,58.50,
5498406,1005.86,-2.93,48.83,-2.35,-0.79,-0.87,-30.30,0.00,57.15,
5518415,1002.93,15.14,67.87,0.37,0.47,-0.55,-30.90,-1.50,57.00,
5538423,1005.37,17.09,56.15,-0.76,-2.84,2.89,-31.05,-1.05,58.20,
5558431,999.51,5.86,71.29,-2.90,-1.37,1.83,-29.70,-1.35,57.90,
5578440,995.61,0.00,48.83,-7.08,-2.85,2.95,-30.60,-2.25,59.70,
5598448,975.10,-3.91,65.92,-0.53,-0.90,-2.27,-30.60,-1.95,57.75,
5618454,1001.95,3.91,66.41,-1.85,1.36,-1.34,-30.30,-1.80,58.95,
5638462,988.77,13.67,46.39,0.24,3.39,-2.49,-30.15,-3.00,58.05,
5658472,995.61,9.28,75.20,3.33,4.63,-1.47,-30.15,-1.95,58.35,
5678482,997.07,17.58,64.94,2.84,4.93,-1.01,-29.70,-2.10,57.15,
5698487,1000.00,17.58,59.08,1.97,6.05,1.39,-29.25,-1.05,58.50,
5718497,998.05,-1.46,76.17,3.80,-0.55,1.82,-30.75,-2.55,58.20,
5738508,998.54,-9.77,72.27,1.89,-3.53,-1.80,-30.30,-2.85,57.45,
5758516,1000.49,15.62,69.82,1.94,-4.73,0.52,-30.00,-2.10,58.20,
5778522,1001.95,-4.39,57.13,2.47,0.84,0.31,-31.35,-2.10,58.20,
5798533,986.82,14.16,104.49,1.79,-1.53,1.47,-30.75,-1.35,57.45,
5818541,986.33,10.74,74.71,2.89,-7.13,-0.47,-31.05,-1.80,57.45,
5838552,1005.86,8.30,87.40,-1.85,-6.05,1.22,-30.90,-1.50,56.70,
5858557,994.63,18.55,50.29,1.50,-3.07,-0.40,-31.80,-1.05,57.90,
5878562,1000.98,-9.77,47.85,2.46,-5.34,-2.73,-30.75,-2.55,57.45,
5898572,995.12,10.25,72.75,1.68,2.06,2.31,-29.85,-2.25,57.30,
5918578,1001.46,33.20,80.57,2.02,-1.25,-0.06,-30.75,0.00,57.15,
5938584,989.26,13.18,65.43,-2.47,-5.34,1.88,-31.35,-1.80,58.20,
5958591,993.65,-10.74,42.48,0.46,-3.34,-1.47,-31.05,-1.05,57.45,
5978601,1002.44,6.84,67.38,-0.78,-0.60,1.79,-30.15,-1.95,57.30,
5998607,990.72,4.88,58.11,0.09,0.20,0.00,-30.15,-1.95,58.35,
6018619,979.49,14.65,70.80,-1.85,-3.07,2.03,-31.05,-2.55,58.95,
6038630,997.07,-1.95,41.99,-1.92,-1.62,2.09,-31.35,-0.60,57.45,
6058639,985.84,8.30,56.15,-1.37,-2.75,2.49,-30.60,-1.20,57.75,
6078645,999.02,7.32,54.20,1.62,-3.36,1.01,-30.60,-1.50,58.05,
6098655,1005.37,1.46,61.04,2.11,-5.01,1.34,-30.75,-1.05,58.20,
6118665,999.02,-4.39,66.89,1.60,-1.50,3.01,-30.30,-1.35,58.20,
6138674,1009.28,5.37,58.59,4.37,-4.12,1.45,-30.60,-2.25,58.05,
6158679,997.56,6.84,44.92,2.46,-3.53,2.58,-28.35,-1.20,58.05,
6178687,997.56,13.18,73.24,0.98,-0.18,3.48,-30.60,-2.25,57.00,
6198692,997.56,2.44,33.20,0.60,-4.89,2.02,-31.05,-2.55,57.90,
6218703,1003.42,0.00,48.83,0.95,-2.09,-1.02,-30.15,-2.25,58.35,
6238714,992.19,0.98,40.04,1.45,-4.14,2.73,-28.95,-2.55,57.45,
6258724,997.56,13.18,56.64,3.18,-1.56,3.22,-29.70,-1.35,57.15,
6278733,998.05,19.53,54.69,1.19,-1.04,1.56,-30.60,-1.50,57.00,
6298742,996.58,-12.70,45.90,3.30,-1.50,0.15,-30.60,-0.90,57.00,
6318753,983.89,9.77,50.78,2.05,-0.37,-0.24,-29.85,-2.25,55.95,
6338764,1000.49,12.70,47.85,6.00,-1.42,-0.37,-30.90,-2.25,57.75,
6358775,998.05,11.23,46.39,2.85,-0.05,-0.67,-31.05,-3.90,57.15,
6378782,990.23,-6.35,55.18,0.21,-3.40,0.27,-30.15,-1.20,57.75,
6398790,991.21,-6.84,54.69,0.87,0.66,1.88,-28.95,-1.35,57.90,
6418796,983.40,2.44,37.11,0.27,-4.58,0.09,-30.30,-1.80,57.90,
6438806,988.28,0.49,59.57,1.56,-0.82,1.33,-29.70,-2.10,57.45,
6458811,999.02,-9.77,57.62,2.05,-1.04,0.06,-29.85,-1.95,57.75,
6478818,1007.32,-17.58,44.43,3.25,-1.34,0.11,-29.25,-1.35,56.85,
6498825,985.35,0.00,56.64,3.71,-1.65,-1.73,-28.95,-2.10,56.85,
6518835,989.75,4.88,70.80,0.21,-3.15,5.13,-30.60,-1.95,57.30,
6538840,998.05,-3.42,32.71,-3.05,-2.43,2.06,-31.65,-2.25,57.30,
6558851,995.61,-0.49,37.11,-0.02,2.64,-0.98,-31.20,-1.50,58.35,
6578857,989.26,-0.98,48.83,1.86,4.84,-3.15,-28.95,-2.55,57.15,
6598865,984.38,13.18,62.01,3.47,-2.00,1.25,-30.30,-1.35,55.50,
6618870,996.58,-1.95,56.64,0.64,-2.27,3.54,-29.70,-2.10,58.20,
6638876,985.84,-8.79,49.80,2.75,-3.89,1.01,-29.10,-2.70,58.05,
6658888,993.65,-8.30,44.92,0.40,-0.46,2.64,-30.60,-1.20,58.35,
6678894,996.58,7.32,52.73,4.20,-4.03,0.67,-30.30,-1.35,56.10,
6698898,1001.95,2.44,42.97,1.08,-1.94,-0.31,-30.90,-2.70,57.00,
6718903,992.68,19.53,53.22,-0.03,-1.13,0.75,-29.10,-2.25,57.00,
6738907,999.02,-1.46,47.85,-1.94,-0.09,-1.76,-30.90,-1.20,57.30,
6758912,990.72,7.32,41.50,-1.80,-0.64,-2.26,-29.10,-2.25,57.75,
6778920,995.12,4.88,50.29,-1.31,-4.75,-1.30,-30.75,-0.60,56.85,
6798929,1008.79,-2.93,14.16,0.53,0.49,-2.70,-29.70,-3.15,57.90,
6818936,987.30,7.81,42.48,1.05,1.02,0.32,-29.85,-1.20,57.00,
6838946,990.23,-4.39,65.92,-1.40,0.66,0.15,-30.90,-1.50,56.70,
6858954,1001.95,6.84,51.27,-1.63,3.68,0.44,-30.60,-1.50,56.25,
6878958,991.70,0.00,46.88,-2.55,1.74,-1.44,-30.60,-1.50,55.65,
6898965,997.56,4.88,43.46,-3.22,0.99,-0.98,-30.30,-3.15,57.15,
6918974,992.68,2.44,50.29,-2.81,0.56,-3.53,-30.30,-2.10,57.15,
6938979,1001.95,-4.39,53.22,-3.63,2.18,-2.44,-29.70,-1.05,57.90,
6958987,990.23,18.55,51.27,-1.10,2.08,-1.91,-30.30,-2.55,57.15,
6978993,992.19,18.55,52.73,-4.08,2.09,-0.15,-31.05,-1.80,56.40,
6999004,996.09,0.98,44.43,-2.35,0.34,1.68,-29.10,-1.95,56.70,
7019010,998.54,8.30,38.09,-7.89,-1.97,2.00,-30.30,-2.10,57.15,
7039018,984.86,6.84,37.60,-5.07,-0.72,1.71,-30.30,-1.80,56.40,
7059025,993.16,6.84,26.86,-3.22,3.60,-2.50,-31.65,-1.50,57.30,
7079030,999.51,-22.46,56.15,-3.60,4.38,-4.72,-28.95,-2.85,56.40,
7099040,1000.98,0.98,35.16,-3.65,2.24,-0.03,-30.90,-3.00,56.70,
7119048,998.05,0.98,42.97,-1.89,0.93,-4.53,-29.70,-2.55,57.45,
7139059,982.42,-2.44,48.83,1.25,0.02,-3.01,-30.30,-1.80,57.45,
7159070,999.51,12.70,48.34,-1.69,2.66,-4.03,-30.00,-2.85,57.90,
7179080,999.02,-4.39,41.99,-2.09,0.55,-5.48,-31.20,-2.25,57.00,
7199088,999.51,14.16,55.18,0.15,1.92,0.11,-31.05,-3.60,58.95,
7219092,994.63,0.98,50.29,-3.04,-0.75,-1.54,-29.70,-1.05,58.20,
7239103,996.58,9.28,47.85,-3.79,-2.56,-1.24,-32.10,-2.55,56.40,
7259113,994.63,0.49,16.60,-2.89,-2.05,0.89,-30.60,-2.25,57.75,
7279123,983.89,7.32,42.48,0.89,3.18,0.27,-30.15,-3.00,57.30,
7299132,1004.88,15.62,45.90,-0.96,1.40,0.05,-30.30,-2.10,58.20,
7319141,983.40,14.16,54.69,-2.90,3.91,-2.32,-29.85,-0.15,56.25,
7339145,989.26,-2.93,45.90,-1.40,-1.89,-0.43,-31.05,-1.80,57.90,
7359152,987.30,5.86,38.09,-2.21,-1.48,0.20,-29.25,-2.10,57.45,
7379159,1003.42,0.98,46.39,0.03,2.38,-1.62,-30.75,-2.85,56.40,
7399167,982.91,3.91,48.34,-0.66,-0.76,-1.54,-30.60,-1.50,57.30,
7419178,994.63,-8.30,38.09,-0.55,0.00,-0.70,-30.30,-1.35,57.45,
7439189,1000.00,0.98,41.50,-3.27,0.44,-4.06,-29.70,-2.55,58.50,
7459198,999.02,-17.09,42.48,-1.86,-1.97,-0.03,-30.00,-1.80,56.40,
7479204,999.02,3.91,41.02,0.20,2.09,-1.45,-29.85,-2.70,56.70,
7499210,994.14,-0.49,56.64,-0.89,-0.95,0.02,-30.90,-0.90,58.05,
7519214,986.82,0.98,43.46,-0.08,0.47,-0.20,-30.15,-1.50,57.75,
7539220,991.70,21.97,43.95,-2.24,2.44,-1.57,-30.15,-1.95,58.35,
7559225,1001.95,2.93,33.69,-2.15,1.37,-3.44,-30.00,-2.10,57.15,
7579236,993.16,-0.98,47.85,-1.54,2.78,-2.00,-30.75,-1.80,56.85,
7599242,986.33,-0.98,28.81,-2.41,5.25,-1.98,-31.95,-1.50,58.05,
7619249,1000.49,5.37,51.76,0.98,8.64,0.35,-29.55,-1.95,57.00,
7639257,1000.00,-6.35,30.76,1.25,6.15,-0.06,-28.80,-2.25,57.75,
7659265,994.14,4.39,64.94,-0.66,7.15,-1.10,-30.75,-1.35,57.15,
7679272,998.54,0.98,74.71,-2.84,-1.18,-0.24,-30.00,-3.15,57.45,
7699280,1006.84,-8.30,34.67,-4.49,-5.71,-0.52,-29.55,-1.50,57.00,
7719287,1002.44,3.42,32.71,-3.40,-1.40,-1.42,-28.95,-1.80,57.15,
7739297,998.05,-6.35,41.50,-2.23,1.66,-2.85,-29.25,-0.60,57.45,
7759304,989.75,10.25,50.78,-1.74,2.90,-2.58,-30.00,-1.80,58.20,
7779312,985.35,3.91,11.72,-1.27,-0.85,-0.87,-30.60,-1.95,57.00,
7799317,991.21,-1.95,40.04,2.38,3.37,-1.48,-30.60,-2.25,58.05,
7819323,998.54,4.88,36.13,-1.44,1.95,-3.45,-30.30,-2.10,56.10,
7839329,997.56,9.77,49.32,1.95,1.94,-0.32,-31.35,-1.05,56.85,
7859340,995.12,-6.35,32.71,0.38,2.11,4.20,-30.60,-1.50,57.30,
7879344,1004.39,9.77,39.06,2.35,-3.15,2.69,-30.00,-1.35,58.20,
7899355,995.61,-1.46,65.43,2.61,-0.38,4.43,-31.05,-1.35,58.95,
7919364,986.33,1.46,44.43,1.31,-2.84,1.08,-30.60,0.15,58.05,
7939373,1004.88,2.44,50.78,1.50,2.85,3.27,-30.90,-1.50,58.05,
7959378,988.28,1.46,69.34,2.05,0.90,0.98,-29.70,-1.80,57.90,
7979387,1002.44,-10.74,49.80,-0.34,-5.08,-0.17,-30.15,-0.45,58.35,
7999394,1000.00,-0.49,38.57,-0.52,-3.27,0.96,-31.35,-1.05,57.90,
8019402,986.33,-6.35,45.41,0.49,0.53,-0.43,-29.70,-2.10,58.95,
8039413,998.54,17.58,54.69,3.37,3.13,2.03,-31.20,-1.95,58.05,
8059421,1000.98,-14.65,61.04,2.09,0.52,-0.58,-29.85,-2.25,57.00,
8079427,991.21,-4.88,59.08,0.12,-3.68,0.23,-31.35,-1.05,56.85,
8099434,999.02,9.77,47.85,2.18,-6.46,-0.12,-30.90,-1.50,57.30,
8119441,985.35,-0.98,34.67,2.11,-2.84,0.64,-30.75,-1.35,57.45,
8139447,995.61,8.30,42.97,0.99,-1.24,-1.95,-30.00,-1.35,57.15,
8159456,1004.39,-9.77,37.11,-0.52,-0.56,0.43,-29.85,-2.25,58.05,
8179464,1007.81,6.35,36.62,-0.34,0.09,1.74,-30.90,-2.25,57.00,
8199469,1000.98,11.23,34.67,2.27,-3.83,0.81,-31.80,-2.55,56.40,
8219479,984.86,-11.72,44.92,1.98,3.18,2.15,-30.30,-0.60,56.85,
8239486,999.02,2.44,62.01,1.95,-0.09,1.18,-30.90,-0.45,57.00,
8259494,991.21,-6.35,43.95,1.62,0.43,2.87,-30.30,-1.05,57.15,
8279502,983.89,-5.37,48.83,-0.20,1.79,2.84,-30.15,-1.20,57.75,
8299507,999.51,1.46,42.97,3.34,0.26,4.31,-31.65,-1.50,57.75,
8319513,997.07,-0.49,56.15,0.50,-4.49,2.38,-29.85,-1.95,58.65,
8339520,995.61,-0.49,27.83,2.81,-6.35,0.00,-31.20,-1.95,56.70,
8359529,1001.95,-3.91,35.64,-0.12,-1.80,6.12,-30.90,-2.25,57.00,
8379536,996.58,-0.49,45.90,2.69,2.15,4.02,-30.15,-1.50,56.70,
8399540,992.68,-8.79,43.46,2.75,2.31,-1.47,-30.60,-2.70,57.30,
8419548,994.14,-26.86,50.29,4.61,4.89,3.21,-30.60,-2.70,56.70,
8439554,988.28,7.32,-3.42,1.66,3.98,0.02,-30.90,-1.50,57.30,
8459559,986.33,-4.39,41.50,2.21,2.23,2.90,-30.75,-1.05,56.40,
8479570,1003.42,-6.35,53.22,-2.15,-2.89,4.18,-30.15,-2.25,57.00,
8499580,989.75,-10.74,36.62,-1.16,0.18,-0.34,-31.20,-1.95,57.00,
8519584,990.72,-6.84,61.52,2.09,-0.05,-2.61,-30.90,-1.20,58.65,
8539593,985.84,-16.11,55.66,2.46,-2.44,-2.47,-31.80,-1.80,56.85,
8559599,994.14,-14.16,48.34,-2.03,0.24,-2.37,-31.20,-1.95,57.00,
8579606,996.58,-3.42,59.08,0.26,3.62,-0.60,-30.75,-1.35,58.20,
8599614,995.61,4.39,60.06,-1.50,0.93,-5.62,-31.05,-1.80,57.45,
8619619,997.56,-18.07,43.46,-2.06,2.00,-1.16,-30.00,-2.10,58.95,
8639625,988.77,-12.70,62.50,0.82,2.69,-2.14,-29.10,-4.20,57.75,
8659633,999.51,-9.77,71.29,4.09,-1.85,-0.84,-30.75,-2.85,58.20,
8679642,995.12,-19.53,44.92,2.14,0.49,0.29,-30.30,-1.80,57.45,
8699646,997.56,2.44,49.80,1.02,1.73,1.36,-30.15,-2.25,56.70,
8719655,997.07,-10.74,48.34,-1.01,-3.44,-1.74,-31.95,-1.50,56.70,
8739665,990.72,-5.86,46.88,0.67,-0.49,-1.57,-30.60,-0.90,58.05,
8759674,999.02,0.49,28.81,0.63,-2.56,-3.18,-32.10,-1.35,57.15,
8779684,995.12,-3.91,25.39,1.42,0.55,-3.56,-30.30,-2.10,57.45,
8799694,1006.84,-21.48,7.32,3.69,3.42,1.25,-31.35,-0.60,57.45,
8819705,998.05,-4.39,41.02,-0.67,2.82,2.47,-30.60,-2.25,58.05,
8839715,1002.44,-9.77,49.32,-0.69,0.31,0.41,-30.60,-1.95,57.00,
8859723,997.56,-13.18,31.25,-1.22,-2.73,-1.37,-30.30,-2.10,55.80,
8879735,999.02,-8.30,35.16,-1.05,-0.41,-3.24,-31.95,-2.25,55.95,
8899745,1007.32,-23.44,27.83,0.23,4.35,0.23,-32.25,-3.00,56.70,
8919752,990.23,-9.77,55.66,-1.10,4.55,-0.70,-30.30,-2.55,57.15,
8939762,992.68,-12.21,40.04,-2.47,0.11,-1.36,-31.05,-1.80,58.95,
8959768,989.75,-6.35,32.23,-0.93,0.67,-3.92,-31.20,-2.25,57.75,
8979778,995.12,-9.28,51.76,-1.71,2.69,0.60,-30.60,-2.70,55.95,
8999785,984.38,-17.58,41.99,-0.79,3.98,-0.76,-29.25,-1.35,55.80,
9019791,994.63,-13.67,41.50,-1.88,1.42,0.63,-30.30,-2.55,57.45,
9039802,987.79,-22.95,37.11,-0.29,4.34,-4.49,-32.55,-2.55,58.20,
9059807,1000.00,-25.39,57.62,0.09,4.17,-3.82,-30.90,-3.00,57.30,
9079816,997.07,-7.32,56.64,-0.27,-2.81,-1.82,-31.05,-1.80,57.45,
9099824,996.58,-21.97,46.88,1.28,-1.48,-1.79,-30.60,-3.45,58.35,
9119832,1005.37,-5.37,47.36,-1.95,3.18,0.35,-31.20,-1.95,57.30,
9139837,965.33,-21.97,167.48,-0.52,2.69,-1.11,-30.15,-1.50,58.05,
9159841,992.19,-2.93,48.83,2.17,4.55,-3.83,-32.70,-1.95,58.05,
9179845,993.65,-14.16,59.08,0.99,1.91,-0.37,-30.75,-2.10,56.85,
9199855,993.65,-15.14,55.66,-1.71,-1.71,-0.20,-30.60,-2.70,58.05,
9219865,1005.37,-8.79,42.97,-1.02,0.73,0.26,-29.85,-1.95,55.95,
9239872,986.82,-9.77,57.13,-4.55,0.06,-3.15,-31.20,-1.95,57.00,
9259882,1001.46,-11.23,22.95,-3.76,-1.60,-1.57,-29.85,-1.20,57.30,
9279892,992.68,-15.62,49.80,0.02,2.61,-1.77,-30.30,-1.05,56.85,
9299899,1001.95,-6.84,41.50,-2.79,6.55,1.18,-30.00,-1.35,57.90,
9319904,996.09,-14.65,58.59,-1.21,6.34,1.83,-31.05,-1.80,57.90,
9339911,988.77,-9.77,47.85,-2.66,3.42,-2.76,-30.90,-1.95,56.25,
9359921,1010.74,-17.58,45.90,-3.16,2.99,-0.70,-30.30,-2.55,57.90,
9379929,1000.98,-13.18,37.11,0.72,0.12,-1.76,-31.95,-1.50,57.30,
9399940,1000.49,-18.07,53.71,-1.16,1.80,-3.36,-29.85,-1.20,56.70,
9419948,1009.28,-25.39,68.36,0.50,-0.93,-2.63,-31.65,-2.70,57.00,
9439956,1000.00,-7.81,31.74,0.53,-0.66,-4.56,-31.05,-2.55,55.50,
9459961,988.28,-21.48,51.27,1.68,1.57,0.46,-31.80,-1.05,57.15,
9479970,1006.35,-6.35,48.34,3.51,2.26,0.00,-30.75,-2.10,57.90,
9499974,997.07,-14.65,46.39,1.57,-0.26,2.60,-31.35,-3.15,57.15,
9519981,998.05,-17.58,54.20,1.16,-0.35,0.02,-30.60,-2.25,57.00,
9539991,1005.37,-17.58,56.64,1.39,-6.55,-2.20,-31.20,-2.25,58.05,
9559996,1005.86,-5.86,47.36,-1.85,-3.15,2.69,-30.30,-2.10,58.20,
9580001,1013.67,-9.77,42.48,2.70,1.56,2.89,-29.85,-1.50,57.30,
9600006,1006.84,-20.51,41.50,1.77,3.18,3.54,-30.90,-1.95,57.30,
9620014,994.63,-17.09,42.48,3.48,-0.40,1.57,-30.00,-3.60,57.15,
9640025,989.75,-48.34,136.72,2.37,4.55,1.74,-30.30,-1.35,57.90,
9660036,990.72,-3.91,62.99,3.21,-4.05,-1.25,-28.80,-1.20,58.35,
9680040,1002.44,-17.58,45.90,1.04,-2.00,-2.32,-30.90,-2.25,57.75,
9700047,996.58,-7.81,40.04,2.09,0.79,1.79,-30.60,-3.45,57.75,
9720053,989.75,-16.11,53.22,2.12,-3.54,0.56,-30.15,-2.70,57.00,
9740061,991.70,-9.77,45.41,1.11,-3.71,-0.26,-30.75,-2.55,57.45,
9760069,996.09,-6.35,47.36,2.73,-5.56,1.07,-30.30,-1.35,57.90,
9780080,996.09,-8.30,50.78,4.56,-1.80,-1.88,-30.60,-4.20,58.35,
9800086,991.21,-6.35,33.20,3.34,-0.73,0.53,-30.60,-1.95,57.30,
9820094,983.40,-2.93,50.29,0.69,-0.73,-1.15,-31.05,-2.55,56.40,
9840102,992.68,-1.46,49.32,1.69,-1.36,-0.96,-29.70,-0.60,57.15,
9860112,986.33,-18.07,59.57,1.01,-2.98,-0.05,-30.30,-1.80,57.45,
9880121,961.43,-3.42,41.99,1.56,-2.49,-2.35,-30.30,-2.55,57.90,
9900127,995.61,-11.72,48.83,2.37,1.54,-0.05,-31.20,-2.25,56.25,
9920132,997.07,-17.58,59.08,2.20,-3.02,1.36,-29.70,-1.05,57.15,
9940138,993.16,-8.79,52.25,0.70,-1.50,0.90,-31.80,-1.35,56.40,
9960144,984.86,-6.35,41.99,-1.30,-3.59,2.61,-29.85,-2.25,56.25,
9980152,989.75,-8.30,13.67,1.60,2.35,2.23,-29.25,-1.35,57.15,
10000159,998.05,-4.88,49.80,1.60,2.61,2.15,-30.75,-2.85,57.15,
10020164,1002.44,-3.42,50.78,1.18,3.86,3.48,-30.30,-1.80,57.90,
10040173,977.05,-23.44,69.34,1.53,2.34,1.48,-31.20,-2.70,57.30,
10060178,999.51,-18.07,68.85,0.34,-1.85,0.47,-30.15,-3.00,57.00,
10080188,1002.44,-3.91,44.92,2.69,-6.31,-1.94,-30.00,-1.35,57.45,
10100198,992.19,-16.11,46.39,0.52,-5.05,-1.59,-30.00,-1.80,58.20,
10120205,998.05,-2.93,40.53,3.73,-3.07,-2.37,-30.30,-1.05,56.10,
10140210,995.12,-5.37,37.60,3.69,-1.73,0.52,-30.60,-2.25,57.00,
10160214,1000.49,-5.86,41.02,0.79,1.73,1.27,-30.90,-1.20,57.75,
